timestamp_abs,timestamp_rel,x,y,z,vx,vy,vz,ax,ay,az,roll,pitch,yaw
1765472102.8678207,0.9548840522766113,0.0,0.0,-0.0721915439984,0.0,0.0,-5.78942543346e-07,0.0,0.0,-2.55356718337e-12,0.0,0.0,0.0
1765472102.87872,0.9657833576202393,0.0,0.0,-0.0765105214243,0.0,0.0,-0.000904156048614,0.0,0.0,-2.72590225957e-05,0.0,0.0,0.0
1765472102.901723,0.9887862205505371,0.0,0.0,-0.0779226356696,0.0,0.0,-0.00152231941485,0.0,0.0,-6.94684795172e-05,0.0,0.0,0.0
1765472102.9191387,1.006201982498169,0.0,0.0,-0.0784525735632,0.0,0.0,-0.00185139782615,0.0,0.0,-0.000105813168365,0.0,0.0,0.0
1765472102.9392254,1.0262887477874756,0.0,0.0,-0.0805697587237,0.0,0.0,-0.00362605916222,0.0,0.0,-0.00038245642671,0.0,0.0,0.0
1765472102.9592745,1.0463378429412842,0.0,0.0,-0.0813807962573,0.0,0.0,-0.00440003722591,0.0,0.0,-0.000537734574757,0.0,0.0,0.0
1765472102.9795136,1.0665769577026367,0.0,0.0,-0.0816909390262,0.0,0.0,-0.00468045455116,0.0,0.0,-0.00060508429231,0.0,0.0,0.0
1765472102.9999564,1.087019681930542,0.0,0.0,-0.0818088698353,0.0,0.0,-0.00472530539927,0.0,0.0,-0.000614788225086,0.0,0.0,0.0
1765472103.0215216,1.1085848808288574,0.0,0.0,-0.0818530923643,0.0,0.0,-0.00465724430226,0.0,0.0,-0.000587056473112,0.0,0.0,0.0
1765472103.0403452,1.127408504486084,0.0,0.0,-0.081868697518,0.0,0.0,-0.00453403671636,0.0,0.0,-0.00053421433042,0.0,0.0,0.0
1765472103.0604053,1.1474685668945312,0.0,0.0,-0.0818733227693,0.0,0.0,-0.00438220291127,0.0,0.0,-0.000463098888663,0.0,0.0,0.0
1765472103.0805755,1.1676387786865234,0.0,0.0,-0.0902921266556,0.0,0.0,-0.0212200790545,0.0,0.0,-0.00858624919872,0.0,0.0,0.0
1765472103.100825,1.1878883838653564,0.0,0.0,-0.0935109750517,0.0,0.0,-0.0274263293561,0.0,0.0,-0.0117667914486,0.0,0.0,0.0
1765472103.1208317,1.207895040512085,0.0,0.0,-0.0947349590701,0.0,0.0,-0.0292000360489,0.0,0.0,-0.0126436826187,0.0,0.0,0.0
1765472103.1408756,1.2279388904571533,0.0,0.0,-0.0951941235357,0.0,0.0,-0.0291357966076,0.0,0.0,-0.012448190374,0.0,0.0,0.0
1765472103.1610048,1.24806809425354,0.0,0.0,-0.0953599838812,0.0,0.0,-0.0283076616971,0.0,0.0,-0.0117423375301,0.0,0.0,0.0
1765472103.181313,1.268376350402832,0.0,0.0,-0.0954146458889,0.0,0.0,-0.0271492826019,0.0,0.0,-0.0107723279581,0.0,0.0,0.0
1765472103.2015305,1.2885937690734863,0.0,0.0,-0.0954240703838,0.0,0.0,-0.0258629943355,0.0,0.0,-0.00966942236838,0.0,0.0,0.0
1765472103.2215698,1.3086330890655518,0.0,0.0,-0.0888712960535,0.0,0.0,-0.00566028828344,0.0,0.0,0.00605771435203,0.0,0.0,0.0
1765472103.2416477,1.3287110328674316,0.0,0.0,-0.0863614158812,0.0,0.0,0.00228350631636,0.0,0.0,0.012371356946,0.0,0.0,0.0
1765472103.262081,1.3491442203521729,0.0,0.0,-0.0854007491935,0.0,0.0,0.00534048590873,0.0,0.0,0.0147352218151,0.0,0.0,0.0
1765472103.2824078,1.3694710731506348,0.0,0.0,-0.085033893748,0.0,0.0,0.0064489395348,0.0,0.0,0.0154456825971,0.0,0.0,0.0
1765472103.3022091,1.3892724514007568,0.0,0.0,-0.0848945200836,0.0,0.0,0.006780487357,0.0,0.0,0.0154637695407,0.0,0.0,0.0
1765472103.3230278,1.4100911617279053,0.0,0.0,-0.0848425355824,0.0,0.0,0.0067995001136,0.0,0.0,0.0151894990495,0.0,0.0,0.0
1765472103.3424225,1.42948579788208,0.0,0.0,-0.0848239902581,0.0,0.0,0.00669105377637,0.0,0.0,0.0147887168156,0.0,0.0,0.0
1765472103.3630219,1.450085163116455,0.0,0.0,-0.084818328075,0.0,0.0,0.00652884119179,0.0,0.0,0.0143310705755,0.0,0.0,0.0
1765472103.382697,1.4697604179382324,0.0,0.0,-0.0900974685134,0.0,0.0,-0.0124025312807,0.0,0.0,-0.00529332318674,0.0,0.0,0.0
1765472103.402909,1.4899723529815674,0.0,0.0,-0.0921083568439,0.0,0.0,-0.0188756594884,0.0,0.0,-0.0119530302199,0.0,0.0,0.0
1765472103.4230242,1.510087490081787,0.0,0.0,-0.0928674624364,0.0,0.0,-0.0205009935286,0.0,0.0,-0.0134341139146,0.0,0.0,0.0
1765472103.4440665,1.5311298370361328,0.0,0.0,-0.0931476301974,0.0,0.0,-0.0202637040155,0.0,0.0,-0.0128790730315,0.0,0.0,0.0
1765472103.4638183,1.5508816242218018,0.0,0.0,-0.0932445796881,0.0,0.0,-0.0193322745771,0.0,0.0,-0.0115529884046,0.0,0.0,0.0
1765472103.4846303,1.5716936588287354,0.0,0.0,-0.0932720783852,0.0,0.0,-0.0181601417171,0.0,0.0,-0.00995998713982,0.0,0.0,0.0
1765472103.5039227,1.5909860134124756,0.0,0.0,-0.0932728544055,0.0,0.0,-0.0169312138735,0.0,0.0,-0.00831260903826,0.0,0.0,0.0
1765472103.5240703,1.6111335754394531,0.0,0.0,-0.0965798375679,0.0,0.0,-0.0287673410545,0.0,0.0,-0.0219644615814,0.0,0.0,0.0
1765472103.5441165,1.6311798095703125,0.0,0.0,-0.0978277063444,0.0,0.0,-0.0318514150936,0.0,0.0,-0.025098921936,0.0,0.0,0.0
1765472103.564219,1.6512823104858398,0.0,0.0,-0.0982881878045,0.0,0.0,-0.0316074006833,0.0,0.0,-0.0241975714783,0.0,0.0,0.0
1765472103.584324,1.6713871955871582,0.0,0.0,-0.0984476192047,0.0,0.0,-0.0301395507685,0.0,0.0,-0.0218190582724,0.0,0.0,0.0
1765472103.6045485,1.6916117668151855,0.0,0.0,-0.098492809362,0.0,0.0,-0.0282611691805,0.0,0.0,-0.0189677956668,0.0,0.0,0.0
1765472103.6246622,1.7117254734039307,0.0,0.0,-0.0984949072586,0.0,0.0,-0.0262877116931,0.0,0.0,-0.0160405434659,0.0,0.0,0.0
1765472103.6448057,1.7318689823150635,0.0,0.0,-0.0984813838453,0.0,0.0,-0.0243386468321,0.0,0.0,-0.0131898684344,0.0,0.0,0.0
1765472103.6653118,1.7523751258850098,0.0,0.0,-0.0971321752763,0.0,0.0,-0.0168838061742,0.0,0.0,-0.00341870607411,0.0,0.0,0.0
1765472103.6850092,1.7720725536346436,0.0,0.0,-0.0966069117448,0.0,0.0,-0.0133000016868,0.0,0.0,0.00124146287144,0.0,0.0,0.0
1765472103.7052107,1.792273998260498,0.0,0.0,-0.0963976815058,0.0,0.0,-0.011251429347,0.0,0.0,0.00384242133586,0.0,0.0,0.0
1765472103.7253208,1.8123841285705566,0.0,0.0,-0.0963099144716,0.0,0.0,-0.00983606487755,0.0,0.0,0.00557397140197,0.0,0.0,0.0
1765472103.745426,1.832489252090454,0.0,0.0,-0.0962691361104,0.0,0.0,-0.00870432476706,0.0,0.0,0.00690168108714,0.0,0.0,0.0
1765472103.7655883,1.852651596069336,0.0,0.0,-0.0962468103903,0.0,0.0,-0.00771988228803,0.0,0.0,0.0080091436218,0.0,0.0,0.0
1765472103.7859762,1.8730394840240479,0.0,0.0,-0.096231988061,0.0,0.0,-0.00682870864998,0.0,0.0,0.00897034719371,0.0,0.0,0.0
1765472103.8060248,1.8930881023406982,0.0,0.0,-0.0855563447362,0.0,0.0,0.0403444078751,0.0,0.0,0.0711625224092,0.0,0.0,0.0
1765472103.8261094,1.913172721862793,0.0,0.0,-0.081501545879,0.0,0.0,0.0558590974287,0.0,0.0,0.0898826552754,0.0,0.0,0.0
1765472103.8468955,1.9339587688446045,0.0,0.0,-0.0799794210568,0.0,0.0,0.0593276369883,0.0,0.0,0.0920960942625,0.0,0.0,0.0
1765472103.8663683,1.9534316062927246,0.0,0.0,-0.0794250893068,0.0,0.0,0.058284717669,0.0,0.0,0.0882117318874,0.0,0.0,0.0
1765472103.8869665,1.974029779434204,0.0,0.0,-0.0792400408316,0.0,0.0,0.0556243616389,0.0,0.0,0.0822444419845,0.0,0.0,0.0
1765472103.9067464,1.993809700012207,0.0,0.0,-0.0791945569773,0.0,0.0,0.0524505381554,0.0,0.0,0.0757250790168,0.0,0.0,0.0
1765472103.9268496,2.0139129161834717,0.0,0.0,-0.0792018803558,0.0,0.0,0.0491919043676,0.0,0.0,0.0692511556719,0.0,0.0,0.0
1765472103.9470108,2.034074068069458,0.0,0.0,-0.0865681310668,0.0,0.0,0.0133942161709,0.0,0.0,0.0187877329332,0.0,0.0,0.0
1765472103.9680426,2.0551059246063232,0.0,0.0,-0.0893831636015,0.0,0.0,9.83121577345e-06,0.0,0.0,6.70760025081e-05,0.0,0.0,0.0
1765472103.9872458,2.0743091106414795,0.0,0.0,-0.0904564176915,0.0,0.0,-0.00477941357304,0.0,0.0,-0.00646389613389,0.0,0.0,0.0
1765472104.0083406,2.0954039096832275,0.0,0.0,-0.0908633141009,0.0,0.0,-0.00629253446731,0.0,0.0,-0.00835292645412,0.0,0.0,0.0
1765472104.0277236,2.1147868633270264,0.0,0.0,-0.0910153196593,0.0,0.0,-0.0065661290167,0.0,0.0,-0.00849702189879,0.0,0.0,0.0
1765472104.0492966,2.136359930038452,0.0,0.0,-0.0910701690055,0.0,0.0,-0.00638008876382,0.0,0.0,-0.00800634925804,0.0,0.0,0.0
1765472104.0682623,2.1553256511688232,0.0,0.0,-0.0910877293414,0.0,0.0,-0.0060351440504,0.0,0.0,-0.00731094766564,0.0,0.0,0.0
1765472104.0888283,2.175891637802124,0.0,0.0,-0.0870841966537,0.0,0.0,0.0124024367881,0.0,0.0,0.0182522041919,0.0,0.0,0.0
1765472104.1088223,2.19588565826416,0.0,0.0,-0.0855642151883,0.0,0.0,0.0184736756554,0.0,0.0,0.0261077279404,0.0,0.0,0.0
1765472104.1286542,2.2157175540924072,0.0,0.0,-0.0849936758944,0.0,0.0,0.0198696367686,0.0,0.0,0.0273072482661,0.0,0.0,0.0
1765472104.1488256,2.235888957977295,0.0,0.0,-0.0847857755286,0.0,0.0,0.0195253436559,0.0,0.0,0.0260719062109,0.0,0.0,0.0
1765472104.1690779,2.256141185760498,0.0,0.0,-0.0847161610923,0.0,0.0,0.0185629341903,0.0,0.0,0.0240156497531,0.0,0.0,0.0
1765472104.189142,2.27620530128479,0.0,0.0,-0.0846983930217,0.0,0.0,0.0174031944035,0.0,0.0,0.0217388146343,0.0,0.0,0.0
1765472104.2103,2.29736328125,0.0,0.0,-0.0847011308974,0.0,0.0,0.0162214063158,0.0,0.0,0.0194965195199,0.0,0.0,0.0
1765472104.2294438,2.31650710105896,0.0,0.0,-0.0847105409116,0.0,0.0,0.0150750760186,0.0,0.0,0.0173645573456,0.0,0.0,0.0
1765472104.2495594,2.336622714996338,0.0,0.0,-0.085389930956,0.0,0.0,0.0109559554657,0.0,0.0,0.0111693145154,0.0,0.0,0.0
1765472104.2696264,2.356689691543579,0.0,0.0,-0.0856548451376,0.0,0.0,0.00897001846754,0.0,0.0,0.00810262851485,0.0,0.0,0.0
1765472104.2897418,2.376805067062378,0.0,0.0,-0.0857608157544,0.0,0.0,0.00782549337223,0.0,0.0,0.00628772018481,0.0,0.0,0.0
1765472104.309932,2.3969953060150146,0.0,0.0,-0.0858056914194,0.0,0.0,0.00702690485537,0.0,0.0,0.00500300473734,0.0,0.0,0.0
1765472104.3300343,2.417097568511963,0.0,0.0,-0.0858269498979,0.0,0.0,0.00638385982773,0.0,0.0,0.00396982447785,0.0,0.0,0.0
1765472104.350219,2.4372823238372803,0.0,0.0,-0.085838874193,0.0,0.0,0.00582152290527,0.0,0.0,0.00307726800135,0.0,0.0,0.0
1765472104.3706193,2.4576826095581055,0.0,0.0,-0.0858470236706,0.0,0.0,0.00531081268158,0.0,0.0,0.00228121161795,0.0,0.0,0.0
1765472104.3905017,2.477565050125122,0.0,0.0,-0.0945398021366,0.0,0.0,-0.0346797375411,0.0,0.0,-0.0533899299778,0.0,0.0,0.0
1765472104.4106424,2.4977056980133057,0.0,0.0,-0.0978369126775,0.0,0.0,-0.0475304921248,0.0,0.0,-0.0697681383251,0.0,0.0,0.0
1765472104.4307747,2.5178380012512207,0.0,0.0,-0.0990707580009,0.0,0.0,-0.050130328418,0.0,0.0,-0.0714305816291,0.0,0.0,0.0
1765472104.4508939,2.537957191467285,0.0,0.0,-0.0995169105438,0.0,0.0,-0.0489370539632,0.0,0.0,-0.0677676306995,0.0,0.0,0.0
1765472104.4725142,2.559577465057373,0.0,0.0,-0.0996634435801,0.0,0.0,-0.0464093920704,0.0,0.0,-0.0623462603674,0.0,0.0,0.0
1765472104.4913096,2.5783729553222656,0.0,0.0,-0.0996959839921,0.0,0.0,-0.0434912463206,0.0,0.0,-0.0565332917641,0.0,0.0,0.0
1765472104.5117965,2.5988597869873047,0.0,0.0,-0.0996863506448,0.0,0.0,-0.040538586905,0.0,0.0,-0.0508349154099,0.0,0.0,0.0
1765472104.53175,2.6188132762908936,0.0,0.0,-0.0969888426066,0.0,0.0,-0.0255028031205,0.0,0.0,-0.028467765739,0.0,0.0,0.0
1765472104.5518174,2.638880729675293,0.0,0.0,-0.0959472239198,0.0,0.0,-0.0189623236332,0.0,0.0,-0.0185584430557,0.0,0.0,0.0
1765472104.5719745,2.6590378284454346,0.0,0.0,-0.0955397835105,0.0,0.0,-0.0157209194546,0.0,0.0,-0.0135219495345,0.0,0.0,0.0
1765472104.5920749,2.67913818359375,0.0,0.0,-0.0953755467877,0.0,0.0,-0.0137886224525,0.0,0.0,-0.0104502472495,0.0,0.0,0.0
1765472104.6129851,2.7000484466552734,0.0,0.0,-0.0953050332479,0.0,0.0,-0.0123985424578,0.0,0.0,-0.00821948759864,0.0,0.0,0.0
1765472104.6324599,2.7195231914520264,0.0,0.0,-0.0952706569648,0.0,0.0,-0.0112591472673,0.0,0.0,-0.00640071204731,0.0,0.0,0.0
1765472104.652574,2.7396373748779297,0.0,0.0,-0.0952505855162,0.0,0.0,-0.01025642387,0.0,0.0,-0.00482352771943,0.0,0.0,0.0
1765472104.672744,2.7598073482513428,0.0,0.0,-0.0952365216574,0.0,0.0,-0.00934298100638,0.0,0.0,-0.00341493366199,0.0,0.0,0.0
1765472104.6928215,2.7798848152160645,0.0,0.0,-0.0952251654235,0.0,0.0,-0.00849879570977,0.0,0.0,-0.00214234511055,0.0,0.0,0.0
1765472104.71297,2.8000333309173584,0.0,0.0,-0.0952152616981,0.0,0.0,-0.0077138714763,0.0,0.0,-0.000988005517763,0.0,0.0,0.0
1765472104.7329779,2.8200411796569824,0.0,0.0,-0.0952062796715,0.0,0.0,-0.00698263567557,0.0,0.0,5.91386408034e-05,0.0,0.0,0.0
1765472104.7531173,2.8401806354522705,0.0,0.0,-0.0951979726978,0.0,0.0,-0.00630177472786,0.0,0.0,0.00100669028526,0.0,0.0,0.0
1765472104.7733767,2.8604400157928467,0.0,0.0,-0.0951902766962,0.0,0.0,-0.00566795738319,0.0,0.0,0.00186208274302,0.0,0.0,0.0
1765472104.7936542,2.8807175159454346,0.0,0.0,-0.0951831254879,0.0,0.0,-0.00507835563955,0.0,0.0,0.00263183352894,0.0,0.0,0.0
1765472104.813694,2.900757312774658,0.0,0.0,-0.0938399104959,0.0,0.0,0.00156833528336,0.0,0.0,0.0118254512726,0.0,0.0,0.0
1765472104.8337777,2.9208409786224365,0.0,0.0,-0.0933272539332,0.0,0.0,0.00399223046484,0.0,0.0,0.0148727972333,0.0,0.0,0.0
1765472104.8538716,2.940934896469116,0.0,0.0,-0.0931324591374,0.0,0.0,0.00480021208281,0.0,0.0,0.0155816717807,0.0,0.0,0.0
1765472104.8740985,2.9611618518829346,0.0,0.0,-0.0930592528135,0.0,0.0,0.00499239788265,0.0,0.0,0.0154119232673,0.0,0.0,0.0
1765472104.894798,2.9818613529205322,0.0,0.0,-0.0930325647559,0.0,0.0,0.0049514092409,0.0,0.0,0.0149219648912,0.0,0.0,0.0
1765472104.9146664,3.001729726791382,0.0,0.0,-0.0930235456975,0.0,0.0,0.00482298404699,0.0,0.0,0.0143226052819,0.0,0.0,0.0
1765472104.9352038,3.0222671031951904,0.0,0.0,-0.0930214487223,0.0,0.0,0.00466419233791,0.0,0.0,0.0136988585856,0.0,0.0,0.0
1765472104.9546797,3.041743040084839,0.0,0.0,-0.0896802817588,0.0,0.0,0.0197533465251,0.0,0.0,0.03435804036,0.0,0.0,0.0
1765472104.97482,3.0618832111358643,0.0,0.0,-0.0884155064567,0.0,0.0,0.0243712359527,0.0,0.0,0.0398330525536,0.0,0.0,0.0
1765472104.9949305,3.081993818283081,0.0,0.0,-0.0879445553725,0.0,0.0,0.025045322551,0.0,0.0,0.0396539650009,0.0,0.0,0.0
1765472105.0150657,3.1021289825439453,0.0,0.0,-0.0877766959588,0.0,0.0,0.0242709915415,0.0,0.0,0.0374601545251,0.0,0.0,0.0
1765472105.0351863,3.1222496032714844,0.0,0.0,-0.0877240804554,0.0,0.0,0.0229997714454,0.0,0.0,0.0346349785816,0.0,0.0,0.0
1765472105.0556574,3.1427206993103027,0.0,0.0,-0.0877148813971,0.0,0.0,0.0215922537827,0.0,0.0,0.0316988159304,0.0,0.0,0.0
1765472105.0763807,3.1634440422058105,0.0,0.0,-0.0877217245614,0.0,0.0,0.0201842706624,0.0,0.0,0.0288444603057,0.0,0.0,0.0
1765472105.1002865,3.187349796295166,0.0,0.0,-0.0877336713522,0.0,0.0,0.0188186228304,0.0,0.0,0.0261261706138,0.0,0.0,0.0
1765472105.1163492,3.2034125328063965,0.0,0.0,-0.0930951883751,0.0,0.0,-0.00692123288286,0.0,0.0,-0.0105117064013,0.0,0.0,0.0
1765472105.1362073,3.2232706546783447,0.0,0.0,-0.0951350083482,0.0,0.0,-0.0158014874951,0.0,0.0,-0.0226034635053,0.0,0.0,0.0
1765472105.1564157,3.243479013442993,0.0,0.0,-0.0959047713496,0.0,0.0,-0.018296872128,0.0,0.0,-0.0254490845235,0.0,0.0,0.0
1765472105.17652,3.2635834217071533,0.0,0.0,-0.0961891531039,0.0,0.0,-0.0184015455511,0.0,0.0,-0.0248799513196,0.0,0.0,0.0
1765472105.1966288,3.2836921215057373,0.0,0.0,-0.0962883862141,0.0,0.0,-0.0176407478745,0.0,0.0,-0.0231196590263,0.0,0.0,0.0
1765472105.2167697,3.3038330078125,0.0,0.0,-0.0963173208031,0.0,0.0,-0.0165956133842,0.0,0.0,-0.0210123713181,0.0,0.0,0.0
1765472105.2369168,3.3239800930023193,0.0,0.0,-0.0963199346781,0.0,0.0,-0.0154853666637,0.0,0.0,-0.0188733268841,0.0,0.0,0.0
1765472105.2570121,3.3440754413604736,0.0,0.0,-0.0929714507131,0.0,0.0,0.000862866853536,0.0,0.0,0.00446061780455,0.0,0.0,0.0
1765472105.2770796,3.364142894744873,0.0,0.0,-0.0916951226507,0.0,0.0,0.00669658111199,0.0,0.0,0.0124724617872,0.0,0.0,0.0
1765472105.2972205,3.3842837810516357,0.0,0.0,-0.0912114516836,0.0,0.0,0.0085289129333,0.0,0.0,0.0146777316981,0.0,0.0,0.0
1765472105.3173718,3.404435157775879,0.0,0.0,-0.0910308846335,0.0,0.0,0.00885093991848,0.0,0.0,0.0147144589053,0.0,0.0,0.0
1765472105.3374913,3.4245545864105225,0.0,0.0,-0.090966048905,0.0,0.0,0.00861546587203,0.0,0.0,0.0139724984029,0.0,0.0,0.0
1765472105.3576107,3.444674015045166,0.0,0.0,-0.0909452812243,0.0,0.0,0.00818622726154,0.0,0.0,0.0129811639659,0.0,0.0,0.0
1765472105.3777375,3.4648008346557617,0.0,0.0,-0.0909411524494,0.0,0.0,0.0077014876462,0.0,0.0,0.0119402900035,0.0,0.0,0.0
1765472105.3979428,3.485006093978882,0.0,0.0,-0.0896065436447,0.0,0.0,0.0133171751938,0.0,0.0,0.0194376413233,0.0,0.0,0.0
1765472105.4180639,3.505127191543579,0.0,0.0,-0.0891042839161,0.0,0.0,0.0147592932104,0.0,0.0,0.0209030095508,0.0,0.0,0.0
1765472105.4381907,3.525254011154175,0.0,0.0,-0.088920033407,0.0,0.0,0.014644646423,0.0,0.0,0.0201557563292,0.0,0.0,0.0
1765472105.4583104,3.5453736782073975,0.0,0.0,-0.0888570377223,0.0,0.0,0.0139725687373,0.0,0.0,0.0186520368275,0.0,0.0,0.0
1765472105.4784548,3.5655181407928467,0.0,0.0,-0.0888400199991,0.0,0.0,0.0131237859531,0.0,0.0,0.0169442118965,0.0,0.0,0.0
1765472105.498664,3.5857272148132324,0.0,0.0,-0.0888401571077,0.0,0.0,0.0122417682057,0.0,0.0,0.0152379621573,0.0,0.0,0.0
1765472105.5189364,3.605999708175659,0.0,0.0,-0.0888464567351,0.0,0.0,0.0113794054535,0.0,0.0,0.0136069160032,0.0,0.0,0.0
1765472105.5412934,3.628356695175171,0.0,0.0,-0.0955398630462,0.0,0.0,-0.0200614933314,0.0,0.0,-0.030631524758,0.0,0.0,0.0
1765472105.559274,3.6463372707366943,0.0,0.0,-0.0980807972114,0.0,0.0,-0.0304176888447,0.0,0.0,-0.0442160340253,0.0,0.0,0.0
1765472105.5795147,3.6665780544281006,0.0,0.0,-0.0990342195063,0.0,0.0,-0.0328231402301,0.0,0.0,-0.0463289954871,0.0,0.0,0.0
1765472105.5996506,3.686713933944702,0.0,0.0,-0.0993816246326,0.0,0.0,-0.0322799966298,0.0,0.0,-0.0442689672527,0.0,0.0,0.0
1765472105.6198063,3.706869602203369,0.0,0.0,-0.0994979534313,0.0,0.0,-0.0306945348863,0.0,0.0,-0.0408136279927,0.0,0.0,0.0
1765472105.639948,3.727011203765869,0.0,0.0,-0.0995271043874,0.0,0.0,-0.0287881982336,0.0,0.0,-0.0370069472085,0.0,0.0,0.0
1765472105.6601484,3.7472116947174072,0.0,0.0,-0.099523516933,0.0,0.0,-0.0268362835005,0.0,0.0,-0.0332443731002,0.0,0.0,0.0
1765472105.6803203,3.767383575439453,0.0,0.0,-0.0954986479871,0.0,0.0,-0.00663524789057,0.0,0.0,-0.00413066599819,0.0,0.0,0.0
1765472105.7004356,3.787498950958252,0.0,0.0,-0.0939605624267,0.0,0.0,0.000918499518626,0.0,0.0,0.00652242285223,0.0,0.0,0.0
1765472105.72054,3.807603359222412,0.0,0.0,-0.0933740122944,0.0,0.0,0.0036371465353,0.0,0.0,0.0101314824405,0.0,0.0,0.0
1765472105.7406235,3.8276867866516113,0.0,0.0,-0.0931514827435,0.0,0.0,0.00451335937971,0.0,0.0,0.0110690507945,0.0,0.0,0.0
1765472105.7607384,3.847801685333252,0.0,0.0,-0.0930681806151,0.0,0.0,0.00469138038231,0.0,0.0,0.0110064420558,0.0,0.0,0.0
1765472105.781052,3.8681154251098633,0.0,0.0,-0.0930380626112,0.0,0.0,0.00460891509158,0.0,0.0,0.0105821755002,0.0,0.0,0.0
1765472105.8010752,3.88813853263855,0.0,0.0,-0.0930282349429,0.0,0.0,0.0044332797462,0.0,0.0,0.0100399280224,0.0,0.0,0.0
1765472105.8219342,3.9089975357055664,0.0,0.0,-0.0856653364458,0.0,0.0,0.0381462733728,0.0,0.0,0.0567775103947,0.0,0.0,0.0
1765472105.8416743,3.9287376403808594,0.0,0.0,-0.0828833099953,0.0,0.0,0.0484523706807,0.0,0.0,0.0695604267774,0.0,0.0,0.0
1765472105.861728,3.948791265487671,0.0,0.0,-0.081847101221,0.0,0.0,0.0500633784103,0.0,0.0,0.069852817263,0.0,0.0,0.0
1765472105.8818698,3.96893310546875,0.0,0.0,-0.0814767695483,0.0,0.0,0.0484948076218,0.0,0.0,0.0657003644969,0.0,0.0,0.0
1765472105.902019,3.9890823364257812,0.0,0.0,-0.0813595856305,0.0,0.0,0.0458355145701,0.0,0.0,0.0601423672683,0.0,0.0,0.0
1765472105.9221854,4.009248733520508,0.0,0.0,-0.0813378997696,0.0,0.0,0.0428772240712,0.0,0.0,0.0543234599305,0.0,0.0,0.0
1765472105.9423501,4.029413461685181,0.0,0.0,-0.0813515863151,0.0,0.0,0.0399195828685,0.0,0.0,0.048670131753,0.0,0.0,0.0
1765472105.9630458,4.050109148025513,0.0,0.0,-0.0813773627255,0.0,0.0,0.0370694305104,0.0,0.0,0.0433259144201,0.0,0.0,0.0
1765472105.9826138,4.069677114486694,0.0,0.0,-0.086752911267,0.0,0.0,0.00994576884571,0.0,0.0,0.00426508846131,0.0,0.0,0.0
1765472106.0031374,4.090200662612915,0.0,0.0,-0.0888082518419,0.0,0.0,-0.000275333656325,0.0,0.0,-0.0101144610015,0.0,0.0,0.0
1765472106.0229602,4.110023498535156,0.0,0.0,-0.0895929360827,0.0,0.0,-0.00402789780066,0.0,0.0,-0.0150651218333,0.0,0.0,0.0
1765472106.0430791,4.130142450332642,0.0,0.0,-0.0898914043325,0.0,0.0,-0.00530957595112,0.0,0.0,-0.0164296733913,0.0,0.0,0.0
1765472106.063521,4.1505842208862305,0.0,0.0,-0.0900038926868,0.0,0.0,-0.00565052018215,0.0,0.0,-0.0164434716122,0.0,0.0,0.0
1765472106.0837362,4.170799493789673,0.0,0.0,-0.0900452760547,0.0,0.0,-0.00563558380561,0.0,0.0,-0.0159602410581,0.0,0.0,0.0
1765472106.103848,4.190911293029785,0.0,0.0,-0.0900594721905,0.0,0.0,-0.00548862651848,0.0,0.0,-0.0153065274623,0.0,0.0,0.0
1765472106.1240315,4.211094856262207,0.0,0.0,-0.0880583272384,0.0,0.0,0.00386024671237,0.0,0.0,-0.00183529605569,0.0,0.0,0.0
1765472106.144068,4.231131315231323,0.0,0.0,-0.087298586333,0.0,0.0,0.00693865000086,0.0,0.0,0.00251032549694,0.0,0.0,0.0
1765472106.1642919,4.251355171203613,0.0,0.0,-0.0870134638759,0.0,0.0,0.00765028253412,0.0,0.0,0.00343238173834,0.0,0.0,0.0
1765472106.1845205,4.271583795547485,0.0,0.0,-0.0869096422934,0.0,0.0,0.00748663005733,0.0,0.0,0.00310766422442,0.0,0.0,0.0
1765472106.2044594,4.291522741317749,0.0,0.0,-0.0868748069588,0.0,0.0,0.00701650303723,0.0,0.0,0.00236456646267,0.0,0.0,0.0
1765472106.2246528,4.311716079711914,0.0,0.0,-0.0868660573942,0.0,0.0,0.00645590257734,0.0,0.0,0.00151615242655,0.0,0.0,0.0
1765472106.2447922,4.331855535507202,0.0,0.0,-0.0868670306476,0.0,0.0,0.00588681447112,0.0,0.0,0.000679793889875,0.0,0.0,0.0
1765472106.264899,4.351962327957153,0.0,0.0,-0.0808567460094,0.0,0.0,0.03279477273,0.0,0.0,0.0381911911509,0.0,0.0,0.0
1765472106.284978,4.37204122543335,0.0,0.0,-0.0785832422104,0.0,0.0,0.0408914295889,0.0,0.0,0.0484113907876,0.0,0.0,0.0
1765472106.3050199,4.392083168029785,0.0,0.0,-0.0777377985787,0.0,0.0,0.0419200680307,0.0,0.0,0.0484854897675,0.0,0.0,0.0
1765472106.325197,4.412260293960571,0.0,0.0,-0.0774376947205,0.0,0.0,0.0403665232711,0.0,0.0,0.0449565982736,0.0,0.0,0.0
1765472106.3453102,4.432373523712158,0.0,0.0,-0.0773447263738,0.0,0.0,0.0379413083291,0.0,0.0,0.0403109150248,0.0,0.0,0.0
1765472106.36545,4.452513217926025,0.0,0.0,-0.0773297868347,0.0,0.0,0.0352937945034,0.0,0.0,0.0354858486699,0.0,0.0,0.0
1765472106.3855739,4.472637176513672,0.0,0.0,-0.0773434586706,0.0,0.0,0.0326669354021,0.0,0.0,0.030825298303,0.0,0.0,0.0
1765472106.4057314,4.492794752120972,0.0,0.0,-0.0827133354136,0.0,0.0,0.00573551714954,0.0,0.0,-0.00760091039664,0.0,0.0,0.0
1765472106.425864,4.512927293777466,0.0,0.0,-0.0847651255714,0.0,0.0,-0.00430575425847,0.0,0.0,-0.0213915354068,0.0,0.0,0.0
1765472106.4460242,4.533087491989136,0.0,0.0,-0.0855473384535,0.0,0.0,-0.00789277935946,0.0,0.0,-0.0257930936597,0.0,0.0,0.0
1765472106.466235,4.553298234939575,0.0,0.0,-0.0858438402105,0.0,0.0,-0.00901642546065,0.0,0.0,-0.0266348838911,0.0,0.0,0.0
1765472106.4868295,4.573892831802368,0.0,0.0,-0.0859544191802,0.0,0.0,-0.00920399215444,0.0,0.0,-0.0261484480803,0.0,0.0,0.0
1765472106.506521,4.593584299087524,0.0,0.0,-0.0859940685784,0.0,0.0,-0.00904063053432,0.0,0.0,-0.0251856485439,0.0,0.0,0.0
1765472106.527722,4.614785194396973,0.0,0.0,-0.0860065471247,0.0,0.0,-0.00875036412682,0.0,0.0,-0.0240735731212,0.0,0.0,0.0
1765472106.5470839,4.6341471672058105,0.0,0.0,-0.0980400935878,0.0,0.0,-0.0634120883365,0.0,0.0,-0.0996319462766,0.0,0.0,0.0
1765472106.5669603,4.65402364730835,0.0,0.0,-0.102595905837,0.0,0.0,-0.0803001309479,0.0,0.0,-0.120387448283,0.0,0.0,0.0
1765472106.5870898,4.674153089523315,0.0,0.0,-0.10429404473,0.0,0.0,-0.0829827339685,0.0,0.0,-0.12074738588,0.0,0.0,0.0
1765472106.607566,4.694629430770874,0.0,0.0,-0.104901990918,0.0,0.0,-0.0804389988365,0.0,0.0,-0.113803631627,0.0,0.0,0.0
1765472106.6275253,4.714588642120361,0.0,0.0,-0.105093973821,0.0,0.0,-0.0761020850845,0.0,0.0,-0.104556632306,0.0,0.0,0.0
1765472106.6477168,4.7347800731658936,0.0,0.0,-0.105129417235,0.0,0.0,-0.0712754930513,0.0,0.0,-0.0948875643883,0.0,0.0,0.0
1765472106.6678114,4.7548747062683105,0.0,0.0,-0.105107274023,0.0,0.0,-0.0664458446284,0.0,0.0,-0.0854863358566,0.0,0.0,0.0
1765472106.6888788,4.775942087173462,0.0,0.0,-0.105065276303,0.0,0.0,-0.0617881923515,0.0,0.0,-0.0765888998519,0.0,0.0,0.0
1765472106.708104,4.7951672077178955,0.0,0.0,-0.107690659914,0.0,0.0,-0.0695649746498,0.0,0.0,-0.0852847833961,0.0,0.0,0.0
1765472106.7282312,4.815294504165649,0.0,0.0,-0.108655933554,0.0,0.0,-0.069210416683,0.0,0.0,-0.0823931222718,0.0,0.0,0.0
1765472106.7483985,4.835461854934692,0.0,0.0,-0.108987689701,0.0,0.0,-0.06594016951,0.0,0.0,-0.0755165230997,0.0,0.0,0.0
1765472106.7685125,4.855575799942017,0.0,0.0,-0.109079138123,0.0,0.0,-0.0617450093115,0.0,0.0,-0.067544226088,0.0,0.0,0.0
1765472106.7892754,4.876338720321655,0.0,0.0,-0.109081076364,0.0,0.0,-0.0573726293932,0.0,0.0,-0.0595482944468,0.0,0.0,0.0
1765472106.8088884,4.895951747894287,0.0,0.0,-0.109050664282,0.0,0.0,-0.0531008387801,0.0,0.0,-0.0519172747319,0.0,0.0,0.0
1765472106.8289766,4.916039943695068,0.0,0.0,-0.109009768142,0.0,0.0,-0.0490272980253,0.0,0.0,-0.0447771276916,0.0,0.0,0.0
1765472106.8491788,4.93624210357666,0.0,0.0,-0.0922554259701,0.0,0.0,0.031326575717,0.0,0.0,0.0685609693273,0.0,0.0,0.0
1765472106.8694656,4.956528902053833,0.0,0.0,-0.0858824250844,0.0,0.0,0.0588854044372,0.0,0.0,0.105074001232,0.0,0.0,0.0
1765472106.8893926,4.976455926895142,0.0,0.0,-0.0834794830501,0.0,0.0,0.0664611493131,0.0,0.0,0.112688764978,0.0,0.0,0.0
1765472106.9095113,4.996574640274048,0.0,0.0,-0.0825932588473,0.0,0.0,0.066559563584,0.0,0.0,0.109658961863,0.0,0.0,0.0
1765472106.9296587,5.016721963882446,0.0,0.0,-0.082285630146,0.0,0.0,0.063948789229,0.0,0.0,0.102935040635,0.0,0.0,0.0
1765472106.9498956,5.036958932876587,0.0,0.0,-0.0821973998515,0.0,0.0,0.0604414989141,0.0,0.0,0.0951471082476,0.0,0.0,0.0
1765472106.9700048,5.057068109512329,0.0,0.0,-0.08219226546,0.0,0.0,0.0567339857292,0.0,0.0,0.0873016082748,0.0,0.0,0.0
1765472106.9901402,5.0772035121917725,0.0,0.0,-0.0855584229976,0.0,0.0,0.0378226276927,0.0,0.0,0.0584674535358,0.0,0.0,0.0
1765472107.0102396,5.0973029136657715,0.0,0.0,-0.0868591193432,0.0,0.0,0.02952770046,0.0,0.0,0.0452532259047,0.0,0.0,0.0
1765472107.030388,5.117451429367065,0.0,0.0,-0.0873687477545,0.0,0.0,0.025353638021,0.0,0.0,0.0381587536258,0.0,0.0,0.0
1765472107.0505626,5.1376259326934814,0.0,0.0,-0.0875750660411,0.0,0.0,0.0228133449604,0.0,0.0,0.0335431043562,0.0,0.0,0.0
1765472107.071112,5.158175230026245,0.0,0.0,-0.0876646073882,0.0,0.0,0.0209507613893,0.0,0.0,0.0300023893937,0.0,0.0,0.0
1765472107.0910356,5.178098917007446,0.0,0.0,-0.0877088366977,0.0,0.0,0.0193970732951,0.0,0.0,0.0269916736219,0.0,0.0,0.0
1765472107.11108,5.198143243789673,0.0,0.0,-0.0877352454388,0.0,0.0,0.0180099905509,0.0,0.0,0.0242980853679,0.0,0.0,0.0
1765472107.1312377,5.218301057815552,0.0,0.0,-0.0870859424269,0.0,0.0,0.0197850193116,0.0,0.0,0.0260910355967,0.0,0.0,0.0
1765472107.1513352,5.238398551940918,0.0,0.0,-0.0868484237965,0.0,0.0,0.0195506940248,0.0,0.0,0.0250308759679,0.0,0.0,0.0
1765472107.1716228,5.258686065673828,0.0,0.0,-0.0867678651362,0.0,0.0,0.0186015786992,0.0,0.0,0.0230037320359,0.0,0.0,0.0
1765472107.1924841,5.279547452926636,0.0,0.0,-0.0867464696897,0.0,0.0,0.0174261536454,0.0,0.0,0.0207164628182,0.0,0.0,0.0
1765472107.2118878,5.298951148986816,0.0,0.0,-0.0867476528839,0.0,0.0,0.0162155292931,0.0,0.0,0.0184455928682,0.0,0.0,0.0
1765472107.2321153,5.319178581237793,0.0,0.0,-0.0867566878855,0.0,0.0,0.0150376219753,0.0,0.0,0.0162842889566,0.0,0.0,0.0
1765472107.252236,5.339299201965332,0.0,0.0,-0.0867681909172,0.0,0.0,0.0139153924914,0.0,0.0,0.0142613962995,0.0,0.0,0.0
1765472107.2724116,5.3594748973846436,0.0,0.0,-0.082770373129,0.0,0.0,0.031161375288,0.0,0.0,0.0379170902179,0.0,0.0,0.0
1765472107.2924867,5.379549980163574,0.0,0.0,-0.0812627234449,0.0,0.0,0.0359078194012,0.0,0.0,0.0434725998139,0.0,0.0,0.0
1765472107.3127027,5.399765968322754,0.0,0.0,-0.0807065519655,0.0,0.0,0.0359793217164,0.0,0.0,0.0423505579434,0.0,0.0,0.0
1765472107.3327756,5.419838905334473,0.0,0.0,-0.0805134758613,0.0,0.0,0.0343658989033,0.0,0.0,0.0389103522285,0.0,0.0,0.0
1765472107.352876,5.439939260482788,0.0,0.0,-0.0804580940155,0.0,0.0,0.032206732998,0.0,0.0,0.0348057892209,0.0,0.0,0.0
1765472107.37304,5.460103273391724,0.0,0.0,-0.0804541745651,0.0,0.0,0.0299306595902,0.0,0.0,0.0306530813184,0.0,0.0,0.0
1765472107.3930337,5.480097055435181,0.0,0.0,-0.0804689906834,0.0,0.0,0.0276981091359,0.0,0.0,0.0266777220401,0.0,0.0,0.0
1765472107.413176,5.500239372253418,0.0,0.0,-0.0898464592653,0.0,0.0,-0.0171635558039,0.0,0.0,-0.0366448274677,0.0,0.0,0.0
1765472107.433337,5.520400285720825,0.0,0.0,-0.0934137999547,0.0,0.0,-0.0325751558037,0.0,0.0,-0.0571120547099,0.0,0.0,0.0
1765472107.453447,5.540510416030884,0.0,0.0,-0.0947594014321,0.0,0.0,-0.0368208418763,0.0,0.0,-0.0614293358222,0.0,0.0,0.0
1765472107.4736094,5.560672760009766,0.0,0.0,-0.0952557126299,0.0,0.0,-0.0368808302958,0.0,0.0,-0.0597871984946,0.0,0.0,0.0
1765472107.4937167,5.580780029296875,0.0,0.0,-0.0954280466078,0.0,0.0,-0.03542381888,0.0,0.0,-0.056075186157,0.0,0.0,0.0
1765472107.5139213,5.600984573364258,0.0,0.0,-0.0954773776793,0.0,0.0,-0.033466973962,0.0,0.0,-0.0517700164167,0.0,0.0,0.0
1765472107.5358558,5.622919082641602,0.0,0.0,-0.0954807985237,0.0,0.0,-0.0313922024656,0.0,0.0,-0.0474191413705,0.0,0.0,0.0
1765472107.5543482,5.641411542892456,0.0,0.0,-0.0954669055535,0.0,0.0,-0.0293501507804,0.0,0.0,-0.0432380099267,0.0,0.0,0.0
1765472107.5744882,5.661551475524902,0.0,0.0,-0.0947791579682,0.0,0.0,-0.0243401402615,0.0,0.0,-0.0350349346728,0.0,0.0,0.0
1765472107.5945618,5.681625127792358,0.0,0.0,-0.094505232072,0.0,0.0,-0.0215246827916,0.0,0.0,-0.0301236631971,0.0,0.0,0.0
1765472107.615218,5.70228123664856,0.0,0.0,-0.0943903144843,0.0,0.0,-0.0195996043697,0.0,0.0,-0.0265922305925,0.0,0.0,0.0
1765472107.6350694,5.722132682800293,0.0,0.0,-0.0943370177094,0.0,0.0,-0.0180603934832,0.0,0.0,-0.0236967818699,0.0,0.0,0.0
1765472107.6549616,5.742024898529053,0.0,0.0,-0.0943074191011,0.0,0.0,-0.0167183197988,0.0,0.0,-0.0211587082128,0.0,0.0,0.0
1765472107.6752062,5.762269496917725,0.0,0.0,-0.094287594849,0.0,0.0,-0.0154964007231,0.0,0.0,-0.0188596877223,0.0,0.0,0.0
1765472107.6970007,5.784064054489136,0.0,0.0,-0.0942722172385,0.0,0.0,-0.0143594298167,0.0,0.0,-0.0167426727199,0.0,0.0,0.0
1765472107.7156703,5.802733659744263,0.0,0.0,-0.083564655568,0.0,0.0,0.0355684949716,0.0,0.0,0.0533756924882,0.0,0.0,0.0
1765472107.7358108,5.822874069213867,0.0,0.0,-0.0795010086211,0.0,0.0,0.0518798705272,0.0,0.0,0.0746298754554,0.0,0.0,0.0
1765472107.7559152,5.842978477478027,0.0,0.0,-0.077977328433,0.0,0.0,0.0554988524575,0.0,0.0,0.0775807805196,0.0,0.0,0.0
1765472107.776031,5.863094329833984,0.0,0.0,-0.0774239390874,0.0,0.0,0.0544131494412,0.0,0.0,0.0738865983468,0.0,0.0,0.0
1765472107.796312,5.883375406265259,0.0,0.0,-0.0772399161434,0.0,0.0,0.0516692422854,0.0,0.0,0.0679827375692,0.0,0.0,0.0
1765472107.8164792,5.903542518615723,0.0,0.0,-0.0771956592737,0.0,0.0,0.048424943584,0.0,0.0,0.0615465122388,0.0,0.0,0.0
1765472107.8365605,5.92362380027771,0.0,0.0,-0.0772034719184,0.0,0.0,0.0451181513724,0.0,0.0,0.0552043188111,0.0,0.0,0.0
1765472107.8566697,5.943732976913452,0.0,0.0,-0.0852493099195,0.0,0.0,0.00529984227261,0.0,0.0,-0.00188988822858,0.0,0.0,0.0
1765472107.8767729,5.963836193084717,0.0,0.0,-0.0883200042324,0.0,0.0,-0.00924899473555,0.0,0.0,-0.0221309741057,0.0,0.0,0.0
1765472107.897929,5.984992265701294,0.0,0.0,-0.0894874892483,0.0,0.0,-0.0141591489569,0.0,0.0,-0.0283568282514,0.0,0.0,0.0
1765472107.9169974,6.004060745239258,0.0,0.0,-0.0899266299589,0.0,0.0,-0.0154067074609,0.0,0.0,-0.0292995183502,0.0,0.0,0.0
1765472107.9371433,6.024206638336182,0.0,0.0,-0.0900874999714,0.0,0.0,-0.0152869180022,0.0,0.0,-0.0283089503772,0.0,0.0,0.0
1765472107.9572866,6.044349908828735,0.0,0.0,-0.0901423398926,0.0,0.0,-0.0146752338322,0.0,0.0,-0.0266601134029,0.0,0.0,0.0
1765472107.9774125,6.064475774765015,0.0,0.0,-0.0901569015257,0.0,0.0,-0.0139053197479,0.0,0.0,-0.0248374096309,0.0,0.0,0.0
1765472107.9975638,6.084627151489258,0.0,0.0,-0.0928296944778,0.0,0.0,-0.0253061194097,0.0,0.0,-0.0400430192761,0.0,0.0,0.0
1765472108.0176687,6.104732036590576,0.0,0.0,-0.0938367244735,0.0,0.0,-0.028346099968,0.0,0.0,-0.0431584029495,0.0,0.0,0.0
1765472108.0384994,6.12556266784668,0.0,0.0,-0.094207175521,0.0,0.0,-0.0282599465719,0.0,0.0,-0.0418256267829,0.0,0.0,0.0
1765472108.058924,6.145987272262573,0.0,0.0,-0.0943348866074,0.0,0.0,-0.0270474804848,0.0,0.0,-0.0389591477579,0.0,0.0,0.0
1765472108.0784013,6.165464639663696,0.0,0.0,-0.0943706754192,0.0,0.0,-0.0254680667904,0.0,0.0,-0.035660073476,0.0,0.0,0.0
1765472108.0984592,6.185522556304932,0.0,0.0,-0.0943716394628,0.0,0.0,-0.0238142030815,0.0,0.0,-0.0323509661307,0.0,0.0,0.0
1765472108.1185231,6.2055864334106445,0.0,0.0,-0.0943602020226,0.0,0.0,-0.0221925279961,0.0,0.0,-0.0291797313567,0.0,0.0,0.0
1765472108.138777,6.225840330123901,0.0,0.0,-0.0976884728303,0.0,0.0,-0.035942729102,0.0,0.0,-0.0475346607523,0.0,0.0,0.0
1765472108.1599271,6.246990442276001,0.0,0.0,-0.0989377495268,0.0,0.0,-0.0392533573712,0.0,0.0,-0.0508142175542,0.0,0.0,0.0
1765472108.179271,6.266334295272827,0.0,0.0,-0.0993938959832,0.0,0.0,-0.0386940643714,0.0,0.0,-0.0486026071903,0.0,0.0,0.0
1765472108.1993296,6.2863929271698,0.0,0.0,-0.0995474017716,0.0,0.0,-0.0367691331805,0.0,0.0,-0.0445505206004,0.0,0.0,0.0
1765472108.2195349,6.30659818649292,0.0,0.0,-0.0995868246763,0.0,0.0,-0.0344252643534,0.0,0.0,-0.0400282627834,0.0,0.0,0.0
1765472108.2408724,6.327935695648193,0.0,0.0,-0.0995842626416,0.0,0.0,-0.0320098320408,0.0,0.0,-0.0355308496815,0.0,0.0,0.0
1765472108.259924,6.346987247467041,0.0,0.0,-0.0995658897084,0.0,0.0,-0.0296625024192,0.0,0.0,-0.0312564489575,0.0,0.0,0.0
1765472108.2801156,6.367178916931152,0.0,0.0,-0.0808297922622,0.0,0.0,0.0579961841484,0.0,0.0,0.0919238684739,0.0,0.0,0.0
1765472108.30021,6.38727331161499,0.0,0.0,-0.0737161380887,0.0,0.0,0.0868953394786,0.0,0.0,0.129660223891,0.0,0.0,0.0
1765472108.3203077,6.4073710441589355,0.0,0.0,-0.0710458691882,0.0,0.0,0.0935843747453,0.0,0.0,0.135347488627,0.0,0.0,0.0
1765472108.3404648,6.427528142929077,0.0,0.0,-0.0700734784039,0.0,0.0,0.0920199205548,0.0,0.0,0.129361713074,0.0,0.0,0.0
1765472108.3615146,6.448577880859375,0.0,0.0,-0.0697467636295,0.0,0.0,0.0875193188756,0.0,0.0,0.119441676667,0.0,0.0,0.0
1765472108.3809972,6.468060493469238,0.0,0.0,-0.0696659694168,0.0,0.0,0.0821205934944,0.0,0.0,0.10854926674,0.0,0.0,0.0
1765472108.4025822,6.489645481109619,0.0,0.0,-0.0696767611484,0.0,0.0,0.076596936696,0.0,0.0,0.0977908370853,0.0,0.0,0.0
1765472108.421002,6.508065223693848,0.0,0.0,-0.0697200396454,0.0,0.0,0.071231595823,0.0,0.0,0.0875571617292,0.0,0.0,0.0
1765472108.441139,6.528202295303345,0.0,0.0,-0.0844761978896,0.0,0.0,-0.001006497526,0.0,0.0,-0.0156754403748,0.0,0.0,0.0
1765472108.4612644,6.548327684402466,0.0,0.0,-0.0901018550055,0.0,0.0,-0.0268951643069,0.0,0.0,-0.0513487091938,0.0,0.0,0.0
1765472108.4814699,6.568533182144165,0.0,0.0,-0.0922349363306,0.0,0.0,-0.0351464004782,0.0,0.0,-0.0614154270923,0.0,0.0,0.0
1765472108.501595,6.588658332824707,0.0,0.0,-0.0930324918867,0.0,0.0,-0.0367355736049,0.0,0.0,-0.0619064799592,0.0,0.0,0.0
1765472108.52173,6.608793258666992,0.0,0.0,-0.0933200993708,0.0,0.0,-0.0358592643499,0.0,0.0,-0.0589443132572,0.0,0.0,0.0
1765472108.5418854,6.62894868850708,0.0,0.0,-0.0934134537474,0.0,0.0,-0.0341194040875,0.0,0.0,-0.0548608888053,0.0,0.0,0.0
1765472108.5620048,6.649068117141724,0.0,0.0,-0.0934333275197,0.0,0.0,-0.0321262199483,0.0,0.0,-0.0505392643005,0.0,0.0,0.0
1765472108.5821767,6.6692399978637695,0.0,0.0,-0.0867429612579,0.0,0.0,0.000400291141675,0.0,0.0,-0.00375203665624,0.0,0.0,0.0
1765472108.6022646,6.689327955245972,0.0,0.0,-0.0841937860733,0.0,0.0,0.0119305408379,0.0,0.0,0.0124353210041,0.0,0.0,0.0
1765472108.6224246,6.7094879150390625,0.0,0.0,-0.0832286952138,0.0,0.0,0.015478488915,0.0,0.0,0.0170345124017,0.0,0.0,0.0
1765472108.6430607,6.730123996734619,0.0,0.0,-0.0828691078962,0.0,0.0,0.0160243004976,0.0,0.0,0.0173172963205,0.0,0.0,0.0
1765472108.662739,6.749802350997925,0.0,0.0,-0.0827405055171,0.0,0.0,0.0154685725854,0.0,0.0,0.0160551412823,0.0,0.0,0.0
1765472108.6836197,6.77068305015564,0.0,0.0,-0.0827000777403,0.0,0.0,0.0145396619395,0.0,0.0,0.0143087655465,0.0,0.0,0.0
1765472108.7030303,6.790093660354614,0.0,0.0,-0.0826926066086,0.0,0.0,0.0135112130309,0.0,0.0,0.0124723444549,0.0,0.0,0.0
1765472108.723174,6.810237407684326,0.0,0.0,-0.0780192179951,0.0,0.0,0.0338469443913,0.0,0.0,0.0404840262209,0.0,0.0,0.0
1765472108.7433066,6.83036994934082,0.0,0.0,-0.0762557506999,0.0,0.0,0.0395640319795,0.0,0.0,0.0473209586812,0.0,0.0,0.0
1765472108.763592,6.8506553173065186,0.0,0.0,-0.0756040019557,0.0,0.0,0.039810821728,0.0,0.0,0.0463359292753,0.0,0.0,0.0
1765472108.7839448,6.8710081577301025,0.0,0.0,-0.0753762778706,0.0,0.0,0.0380767070767,0.0,0.0,0.0426149318631,0.0,0.0,0.0
1765472108.8062632,6.8933265209198,0.0,0.0,-0.0753086639951,0.0,0.0,0.035678210015,0.0,0.0,0.0380661457857,0.0,0.0,0.0
1765472108.8243067,6.911370038986206,0.0,0.0,-0.0753033857821,0.0,0.0,0.0331459137244,0.0,0.0,0.0334635888746,0.0,0.0,0.0
1765472108.8444011,6.931464433670044,0.0,0.0,-0.07531964613,0.0,0.0,0.0306645111035,0.0,0.0,0.0290617943576,0.0,0.0,0.0
1765472108.864492,6.951555252075195,0.0,0.0,-0.0753429562034,0.0,0.0,0.0282968454336,0.0,0.0,0.0249425484448,0.0,0.0,0.0
1765472108.8846471,6.971710443496704,0.0,0.0,-0.0753679136652,0.0,0.0,0.0260620467794,0.0,0.0,0.0211246817213,0.0,0.0,0.0
1765472108.9048238,6.991887092590332,0.0,0.0,-0.075392230101,0.0,0.0,0.0239580909589,0.0,0.0,0.0175958464693,0.0,0.0,0.0
1765472108.9249074,7.01197075843811,0.0,0.0,-0.0754157457679,0.0,0.0,0.0219859991378,0.0,0.0,0.0143506626269,0.0,0.0,0.0
1765472108.945073,7.0321362018585205,0.0,0.0,-0.0754378765464,0.0,0.0,0.0201391025191,0.0,0.0,0.0113712891365,0.0,0.0,0.0
1765472108.9650311,7.052094459533691,0.0,0.0,-0.0754586115477,0.0,0.0,0.0184102207504,0.0,0.0,0.00864016994481,0.0,0.0,0.0
1765472108.9851549,7.072218179702759,0.0,0.0,-0.0754780871141,0.0,0.0,0.0167939970867,0.0,0.0,0.00614302183056,0.0,0.0,0.0
1765472109.0053356,7.0923988819122314,0.0,0.0,-0.0848527081966,0.0,0.0,-0.0274409808696,0.0,0.0,-0.0557297382036,0.0,0.0,0.0
1765472109.025447,7.1125102043151855,0.0,0.0,-0.088414840128,0.0,0.0,-0.0422527345681,0.0,0.0,-0.0748236447771,0.0,0.0,0.0
1765472109.0456169,7.132680177688599,0.0,0.0,-0.0897542780925,0.0,0.0,-0.0459197439717,0.0,0.0,-0.0778353544082,0.0,0.0,0.0
1765472109.0657194,7.152782678604126,0.0,0.0,-0.090244197806,0.0,0.0,-0.0454287187485,0.0,0.0,-0.0749634823573,0.0,0.0,0.0
1765472109.0860522,7.173115491867065,0.0,0.0,-0.0904103312021,0.0,0.0,-0.0434497617473,0.0,0.0,-0.0700971956512,0.0,0.0,0.0
1765472109.106121,7.1931843757629395,0.0,0.0,-0.0904537002224,0.0,0.0,-0.040999771227,0.0,0.0,-0.0647110818822,0.0,0.0,0.0
1765472109.1266332,7.213696479797363,0.0,0.0,-0.0904511677935,0.0,0.0,-0.0384636660457,0.0,0.0,-0.059356869848,0.0,0.0,0.0
1765472109.1464367,7.233500003814697,0.0,0.0,-0.0911007948769,0.0,0.0,-0.0390315491061,0.0,0.0,-0.0584805125016,0.0,0.0,0.0
1765472109.16647,7.253533363342285,0.0,0.0,-0.0913296971751,0.0,0.0,-0.0376104502571,0.0,0.0,-0.0548555363882,0.0,0.0,0.0
1765472109.1865823,7.273645639419556,0.0,0.0,-0.0913988515446,0.0,0.0,-0.0355210848973,0.0,0.0,-0.0504003787205,0.0,0.0,0.0
1765472109.2073374,7.294400691986084,0.0,0.0,-0.0914096884689,0.0,0.0,-0.0332383513953,0.0,0.0,-0.0457886390403,0.0,0.0,0.0
1765472109.2270198,7.314083099365234,0.0,0.0,-0.0913954169521,0.0,0.0,-0.0309908778338,0.0,0.0,-0.0413663397993,0.0,0.0,0.0
1765472109.2472498,7.334313154220581,0.0,0.0,-0.0913744740226,0.0,0.0,-0.0288394653535,0.0,0.0,-0.0372025491574,0.0,0.0,0.0
1765472109.2709146,7.357977867126465,0.0,0.0,-0.0913555797686,0.0,0.0,-0.0267426311978,0.0,0.0,-0.0332088063699,0.0,0.0,0.0
1765472109.2882054,7.3752686977386475,0.0,0.0,-0.0913302670092,0.0,0.0,-0.0247996518574,0.0,0.0,-0.0295634738732,0.0,0.0,0.0
1765472109.308299,7.395362377166748,0.0,0.0,-0.0886344357473,0.0,0.0,-0.0107858749197,0.0,0.0,-0.00917198478385,0.0,0.0,0.0
1765472109.3283873,7.415450572967529,0.0,0.0,-0.0876011008267,0.0,0.0,-0.0052607954466,0.0,0.0,-0.00120216504861,0.0,0.0,0.0
1765472109.348569,7.435632228851318,0.0,0.0,-0.0872038147527,0.0,0.0,-0.0029898510261,0.0,0.0,0.00200129675809,0.0,0.0,0.0
1765472109.3686774,7.455740690231323,0.0,0.0,-0.0870500189623,0.0,0.0,-0.0019757111752,0.0,0.0,0.00336041464429,0.0,0.0,0.0
1765472109.3887289,7.475792169570923,0.0,0.0,-0.0869895291041,0.0,0.0,-0.00145393795472,0.0,0.0,0.00399412019803,0.0,0.0,0.0
1765472109.4089224,7.495985746383667,0.0,0.0,-0.0869648751445,0.0,0.0,-0.00113115507855,0.0,0.0,0.00433226083449,0.0,0.0,0.0
1765472109.4290423,7.516105651855469,0.0,0.0,-0.0869540804122,0.0,0.0,-0.000893267970426,0.0,0.0,0.00454173870746,0.0,0.0,0.0
1765472109.4492352,7.536298513412476,0.0,0.0,-0.0836067783708,0.0,0.0,0.0145622032832,0.0,0.0,0.0259788935439,0.0,0.0,0.0
1765472109.4693406,7.556403875350952,0.0,0.0,-0.0823375365962,0.0,0.0,0.0195149876496,0.0,0.0,0.0321589630395,0.0,0.0,0.0
1765472109.4894764,7.576539754867554,0.0,0.0,-0.0818627269418,0.0,0.0,0.0205061785113,0.0,0.0,0.0326383912585,0.0,0.0,0.0
1765472109.509637,7.596700429916382,0.0,0.0,-0.0816911351542,0.0,0.0,0.0200315605078,0.0,0.0,0.0310589381446,0.0,0.0,0.0
1765472109.52976,7.616823196411133,0.0,0.0,-0.0816351129377,0.0,0.0,0.019043105109,0.0,0.0,0.0288073329503,0.0,0.0,0.0
1765472109.549926,7.63698935508728,0.0,0.0,-0.0816227217762,0.0,0.0,0.0179023675815,0.0,0.0,0.026406463437,0.0,0.0,0.0
1765472109.5700634,7.6571266651153564,0.0,0.0,-0.081626574366,0.0,0.0,0.016746182233,0.0,0.0,0.0240517063436,0.0,0.0,0.0
1765472109.5901992,7.677262544631958,0.0,0.0,-0.0843093175561,0.0,0.0,0.00342569918693,0.0,0.0,0.00479670734826,0.0,0.0,0.0
1765472109.6103244,7.6973876953125,0.0,0.0,-0.0853335078076,0.0,0.0,-0.00147204979948,0.0,0.0,-0.00216912762079,0.0,0.0,0.0
1765472109.630447,7.717510223388672,0.0,0.0,-0.0857231658778,0.0,0.0,-0.00315695940897,0.0,0.0,-0.00445811550069,0.0,0.0,0.0
1765472109.6506655,7.737728834152222,0.0,0.0,-0.0858701763408,0.0,0.0,-0.00362341961786,0.0,0.0,-0.00498329615972,0.0,0.0,0.0
1765472109.6708784,7.757941722869873,0.0,0.0,-0.0859243916584,0.0,0.0,-0.00363351021628,0.0,0.0,-0.00485739563727,0.0,0.0,0.0
1765472109.6909735,7.778036832809448,0.0,0.0,-0.0859432368407,0.0,0.0,-0.00347891233424,0.0,0.0,-0.00450540446721,0.0,0.0,0.0
1765472109.7111092,7.798172473907471,0.0,0.0,-0.0859486732684,0.0,0.0,-0.00327042660939,0.0,0.0,-0.0040881086,0.0,0.0,0.0
1765472109.7312133,7.818276643753052,0.0,0.0,-0.0912953869073,0.0,0.0,-0.0274560171995,0.0,0.0,-0.037700839148,0.0,0.0,0.0
1765472109.7514944,7.838557720184326,0.0,0.0,-0.0933197803257,0.0,0.0,-0.0348981350854,0.0,0.0,-0.0470199585838,0.0,0.0,0.0
1765472109.7716725,7.858735799789429,0.0,0.0,-0.0940739832585,0.0,0.0,-0.0360361304011,0.0,0.0,-0.0472863762567,0.0,0.0,0.0
1765472109.7919068,7.878970146179199,0.0,0.0,-0.0943434026764,0.0,0.0,-0.0348604276381,0.0,0.0,-0.0443185757841,0.0,0.0,0.0
1765472109.811993,7.8990561962127686,0.0,0.0,-0.0944283008569,0.0,0.0,-0.0328941829642,0.0,0.0,-0.0403320990572,0.0,0.0,0.0
1765472109.832185,7.919248342514038,0.0,0.0,-0.0944437440151,0.0,0.0,-0.0307146576681,0.0,0.0,-0.0361600484639,0.0,0.0,0.0
1765472109.8522544,7.93931770324707,0.0,0.0,-0.0944335939703,0.0,0.0,-0.0285383454451,0.0,0.0,-0.0321096171227,0.0,0.0,0.0
1765472109.872426,7.959489345550537,0.0,0.0,-0.0937462624901,0.0,0.0,-0.023393366596,0.0,0.0,-0.0240334305035,0.0,0.0,0.0
1765472109.8925135,7.979576826095581,0.0,0.0,-0.0934715880089,0.0,0.0,-0.0204496977804,0.0,0.0,-0.0192535622056,0.0,0.0,0.0
1765472109.9126651,7.999728441238403,0.0,0.0,-0.09335547824,0.0,0.0,-0.0184094306003,0.0,0.0,-0.0158678217893,0.0,0.0,0.0
1765472109.9327347,8.019798040390015,0.0,0.0,-0.0933008120773,0.0,0.0,-0.0167710245166,0.0,0.0,-0.0131373021387,0.0,0.0,0.0
1765472109.9528866,8.039949893951416,0.0,0.0,-0.093270220684,0.0,0.0,-0.0153409300585,0.0,0.0,-0.0107739950866,0.0,0.0,0.0
1765472109.9730418,8.060105085372925,0.0,0.0,-0.09324946602,0.0,0.0,-0.0140419499621,0.0,0.0,-0.00865989355659,0.0,0.0,0.0
1765472109.9930723,8.080135583877563,0.0,0.0,-0.0932330872986,0.0,0.0,-0.012841123325,0.0,0.0,-0.00674193141436,0.0,0.0,0.0
1765472110.0131843,8.100247621536255,0.0,0.0,-0.0878722690039,0.0,0.0,0.0126955709187,0.0,0.0,0.0290601933441,0.0,0.0,0.0
1765472110.0333476,8.120410919189453,0.0,0.0,-0.0858336042886,0.0,0.0,0.0213967115929,0.0,0.0,0.0403783241098,0.0,0.0,0.0
1765472110.0534754,8.140538692474365,0.0,0.0,-0.0850656205089,0.0,0.0,0.0237117446679,0.0,0.0,0.0424730706651,0.0,0.0,0.0
1765472110.073699,8.160762310028076,0.0,0.0,-0.0847829549518,0.0,0.0,0.0236362691287,0.0,0.0,0.0411737450876,0.0,0.0,0.0
1765472110.094016,8.181079387664795,0.0,0.0,-0.084685697822,0.0,0.0,0.0226967473386,0.0,0.0,0.0387064579406,0.0,0.0,0.0
1765472110.1140716,8.20113492012024,0.0,0.0,-0.084658744933,0.0,0.0,0.021475616747,0.0,0.0,0.0359158655753,0.0,0.0,0.0
1765472110.1362603,8.223323583602905,0.0,0.0,-0.0846571193924,0.0,0.0,0.0201792396268,0.0,0.0,0.0330906528375,0.0,0.0,0.0
1765472110.1548996,8.241962909698486,0.0,0.0,-0.0846658783186,0.0,0.0,0.0188985361125,0.0,0.0,0.0303664673455,0.0,0.0,0.0
1765472110.1749876,8.262050867080688,0.0,0.0,-0.0900266371395,0.0,0.0,-0.00676081001384,0.0,0.0,-0.0062871473593,0.0,0.0,0.0
1765472110.1968052,8.283868551254272,0.0,0.0,-0.0920656337024,0.0,0.0,-0.0155767319277,0.0,0.0,-0.0184110823039,0.0,0.0,0.0
1765472110.215099,8.302162408828735,0.0,0.0,-0.092834305487,0.0,0.0,-0.0180063913772,0.0,0.0,-0.0212834895272,0.0,0.0,0.0
1765472110.2352154,8.32227873802185,0.0,0.0,-0.0931177605772,0.0,0.0,-0.0180535811361,0.0,0.0,-0.0207509751854,0.0,0.0,0.0
1765472110.2556791,8.342742443084717,0.0,0.0,-0.0932169394734,0.0,0.0,-0.0172347468293,0.0,0.0,-0.0190216332157,0.0,0.0,0.0
1765472110.277292,8.364355325698853,0.0,0.0,-0.093245007265,0.0,0.0,-0.0161393935675,0.0,0.0,-0.0169572224148,0.0,0.0,0.0
1765472110.2960155,8.383078813552856,0.0,0.0,-0.0932467506571,0.0,0.0,-0.0149894916445,0.0,0.0,-0.0148757594195,0.0,0.0,0.0
1765472110.3162158,8.403279066085815,0.0,0.0,-0.0832148982227,0.0,0.0,0.0318635331838,0.0,0.0,0.0509250260454,0.0,0.0,0.0
1765472110.3362424,8.423305749893188,0.0,0.0,-0.0794062277607,0.0,0.0,0.0472862524614,0.0,0.0,0.0710148643012,0.0,0.0,0.0
1765472110.3566036,8.443666934967041,0.0,0.0,-0.0779735515074,0.0,0.0,0.0508230126622,0.0,0.0,0.0739356231107,0.0,0.0,0.0
1765472110.3766816,8.463744878768921,0.0,0.0,-0.077455700001,0.0,0.0,0.0499357874962,0.0,0.0,0.0706204005014,0.0,0.0,0.0
1765472110.3968246,8.483887910842896,0.0,0.0,-0.0772824782276,0.0,0.0,0.0474958695211,0.0,0.0,0.0652311787146,0.0,0.0,0.0
1765472110.4169683,8.504031658172607,0.0,0.0,-0.0772397539992,0.0,0.0,0.0445809235434,0.0,0.0,0.0593304414366,0.0,0.0,0.0
1765472110.4369838,8.524047136306763,0.0,0.0,-0.077245694986,0.0,0.0,0.041597700259,0.0,0.0,0.0535005757989,0.0,0.0,0.0
1765472110.4575243,8.5445876121521,0.0,0.0,-0.0893076087771,0.0,0.0,-0.0168132579835,0.0,0.0,-0.0295260954998,0.0,0.0,0.0
1765472110.4777036,8.564766883850098,0.0,0.0,-0.0938938425016,0.0,0.0,-0.0367978181783,0.0,0.0,-0.056584316194,0.0,0.0,0.0
1765472110.497842,8.58490538597107,0.0,0.0,-0.0956235636869,0.0,0.0,-0.0423942848847,0.0,0.0,-0.0628039456842,0.0,0.0,0.0
1765472110.5179214,8.604984760284424,0.0,0.0,-0.0962626277985,0.0,0.0,-0.0426207067254,0.0,0.0,-0.061353995081,0.0,0.0,0.0
1765472110.5380392,8.625102519989014,0.0,0.0,-0.0964854941157,0.0,0.0,-0.0409027520861,0.0,0.0,-0.0572324610005,0.0,0.0,0.0
1765472110.558471,8.64553427696228,0.0,0.0,-0.096553045353,0.0,0.0,-0.0385078344176,0.0,0.0,-0.0522654600236,0.0,0.0,0.0
1765472110.578594,8.66565728187561,0.0,0.0,-0.0965566669985,0.0,0.0,-0.0359881049121,0.0,0.0,-0.0472805037298,0.0,0.0,0.0
1765472110.598722,8.685785293579102,0.0,0.0,-0.091862164676,0.0,0.0,-0.012188428858,0.0,0.0,-0.012741773871,0.0,0.0,0.0
1765472110.618813,8.705876350402832,0.0,0.0,-0.0900665319963,0.0,0.0,-0.00312831506408,0.0,0.0,0.000257982764051,0.0,0.0,0.0
1765472110.6392133,8.726276636123657,0.0,0.0,-0.0893799022467,0.0,0.0,0.000296819838236,0.0,0.0,0.00502944305156,0.0,0.0,0.0
1765472110.6593072,8.746370553970337,0.0,0.0,-0.0891174949955,0.0,0.0,0.00156867498163,0.0,0.0,0.00666125374748,0.0,0.0,0.0
1765472110.6795914,8.76665472984314,0.0,0.0,-0.0890177042783,0.0,0.0,0.00200800578498,0.0,0.0,0.00708702930126,0.0,0.0,0.0
1765472110.6997263,8.786789655685425,0.0,0.0,-0.0889800290092,0.0,0.0,0.00213157259772,0.0,0.0,0.00706030240177,0.0,0.0,0.0
1765472110.7198575,8.806920766830444,0.0,0.0,-0.088966108821,0.0,0.0,0.00213496869052,0.0,0.0,0.00686668420466,0.0,0.0,0.0
1765472110.740586,8.827649354934692,0.0,0.0,-0.0869563134785,0.0,0.0,0.0112420834777,0.0,0.0,0.019377566399,0.0,0.0,0.0
1765472110.7603652,8.847428560256958,0.0,0.0,-0.0861944247582,0.0,0.0,0.0140613424272,0.0,0.0,0.0227612751643,0.0,0.0,0.0
1765472110.7804458,8.867509126663208,0.0,0.0,-0.0859114015747,0.0,0.0,0.0144981055264,0.0,0.0,0.0227312289837,0.0,0.0,0.0
1765472110.8007705,8.887833833694458,0.0,0.0,-0.0858102232198,0.0,0.0,0.0140644398601,0.0,0.0,0.0214875941662,0.0,0.0,0.0
1765472110.820884,8.907947301864624,0.0,0.0,-0.0857782627152,0.0,0.0,0.013331186963,0.0,0.0,0.0198610725107,0.0,0.0,0.0
1765472110.8410332,8.928096532821655,0.0,0.0,-0.085772402126,0.0,0.0,0.0125146396827,0.0,0.0,0.0181640625117,0.0,0.0,0.0
1765472110.8613615,8.948424816131592,0.0,0.0,-0.0857748874375,0.0,0.0,0.0116770404383,0.0,0.0,0.0164763027084,0.0,0.0,0.0
1765472110.881574,8.968637228012085,0.0,0.0,-0.0864516143408,0.0,0.0,0.00782442514479,0.0,0.0,0.010638613391,0.0,0.0,0.0
1765472110.9016454,8.988708734512329,0.0,0.0,-0.0867131962776,0.0,0.0,0.00611625820384,0.0,0.0,0.00795633867669,0.0,0.0,0.0
1765472110.9217625,9.008825778961182,0.0,0.0,-0.0868159555772,0.0,0.0,0.0052389955068,0.0,0.0,0.00650880101577,0.0,0.0,0.0
1765472110.9425354,9.029598712921143,0.0,0.0,-0.0868577470577,0.0,0.0,0.0046912182795,0.0,0.0,0.00556135284895,0.0,0.0,0.0
1765472110.9627466,9.04980993270874,0.0,0.0,-0.0868759970822,0.0,0.0,0.00427984836221,0.0,0.0,0.00483010048094,0.0,0.0,0.0
1765472110.9823856,9.069448947906494,0.0,0.0,-0.0868854188363,0.0,0.0,0.00393580428186,0.0,0.0,0.00421426898562,0.0,0.0,0.0
1765472111.0025113,9.089574575424194,0.0,0.0,-0.0868911588669,0.0,0.0,0.00362942974729,0.0,0.0,0.00366850797726,0.0,0.0,0.0
1765472111.0231478,9.11021113395691,0.0,0.0,-0.0868953085382,0.0,0.0,0.00334779443465,0.0,0.0,0.00317255987823,0.0,0.0,0.0
1765472111.0427582,9.129821538925171,0.0,0.0,-0.0895716806265,0.0,0.0,-0.00909846713476,0.0,0.0,-0.0142775161222,0.0,0.0,0.0
1765472111.0640805,9.151143789291382,0.0,0.0,-0.0905898705811,0.0,0.0,-0.0132049118033,0.0,0.0,-0.0195964187571,0.0,0.0,0.0
1765472111.0839264,9.170989751815796,0.0,0.0,-0.0909697588341,0.0,0.0,-0.0141013222389,0.0,0.0,-0.0202956380124,0.0,0.0,0.0
1765472111.1072176,9.194280862808228,0.0,0.0,-0.0911083319097,0.0,0.0,-0.0138173305367,0.0,0.0,-0.0193242485727,0.0,0.0,0.0
1765472111.1243331,9.21139645576477,0.0,0.0,-0.0911536618333,0.0,0.0,-0.0131235902902,0.0,0.0,-0.0178121939523,0.0,0.0,0.0
1765472111.1464238,9.233487129211426,0.0,0.0,-0.0911645135977,0.0,0.0,-0.0123070315352,0.0,0.0,-0.0161708382001,0.0,0.0,0.0
1765472111.1647873,9.251850605010986,0.0,0.0,-0.0911628084318,0.0,0.0,-0.0114698311755,0.0,0.0,-0.0145446734149,0.0,0.0,0.0
1765472111.1847932,9.271856546401978,0.0,0.0,-0.0884823438024,0.0,0.0,0.00152892612316,0.0,0.0,0.00400342621224,0.0,0.0,0.0
1765472111.2048721,9.291935443878174,0.0,0.0,-0.0874614900713,0.0,0.0,0.00611724955304,0.0,0.0,0.0102933665991,0.0,0.0,0.0
1765472111.225003,9.312066316604614,0.0,0.0,-0.0870751715847,0.0,0.0,0.00751372190641,0.0,0.0,0.0119525063551,0.0,0.0,0.0
1765472111.245017,9.332080364227295,0.0,0.0,-0.0869313629041,0.0,0.0,0.00770884632213,0.0,0.0,0.0118886850778,0.0,0.0,0.0
1765472111.2654653,9.35252857208252,0.0,0.0,-0.0868794830321,0.0,0.0,0.00745552334485,0.0,0.0,0.0111964498819,0.0,0.0,0.0
1765472111.2856846,9.372747898101807,0.0,0.0,-0.0868640599854,0.0,0.0,0.00705559457962,0.0,0.0,0.0103239145253,0.0,0.0,0.0
1765472111.3057961,9.39285945892334,0.0,0.0,-0.0868615269074,0.0,0.0,0.0066176988022,0.0,0.0,0.0094228499864,0.0,0.0,0.0
1765472111.3259304,9.412993669509888,0.0,0.0,-0.0861955548759,0.0,0.0,0.0092257389808,0.0,0.0,0.0127965154177,0.0,0.0,0.0
1765472111.3460085,9.433071851730347,0.0,0.0,-0.0859462407333,0.0,0.0,0.00976109084218,0.0,0.0,0.0131838400977,0.0,0.0,0.0
1765472111.3663926,9.453455924987793,0.0,0.0,-0.0858553307083,0.0,0.0,0.00952261540132,0.0,0.0,0.0124767121488,0.0,0.0,0.0
1765472111.386564,9.47362732887268,0.0,0.0,-0.0858262554037,0.0,0.0,0.00901932143411,0.0,0.0,0.0114240603247,0.0,0.0,0.0
1765472111.4072216,9.494284868240356,0.0,0.0,-0.0858197709711,0.0,0.0,0.00844049114515,0.0,0.0,0.0102958177559,0.0,0.0,0.0
1765472111.4268503,9.513913631439209,0.0,0.0,-0.0858215884138,0.0,0.0,0.00785462338968,0.0,0.0,0.00918925351871,0.0,0.0,0.0
1765472111.4470646,9.534127950668335,0.0,0.0,-0.0858264065292,0.0,0.0,0.00728782139476,0.0,0.0,0.00814055590162,0.0,0.0,0.0
1765472111.4673085,9.55437183380127,0.0,0.0,-0.0831575557607,0.0,0.0,0.0189810357445,0.0,0.0,0.0242173227082,0.0,0.0,0.0
1765472111.487533,9.574596405029297,0.0,0.0,-0.0821511011548,0.0,0.0,0.0222946984641,0.0,0.0,0.0281582066267,0.0,0.0,0.0
1765472111.5076768,9.594740152359009,0.0,0.0,-0.0817790048404,0.0,0.0,0.0224855609429,0.0,0.0,0.0276337451958,0.0,0.0,0.0
1765472111.527831,9.614894390106201,0.0,0.0,-0.0816486337009,0.0,0.0,0.0215456611089,0.0,0.0,0.0255466983529,0.0,0.0,0.0
1765472111.5479884,9.635051727294922,0.0,0.0,-0.0816101746542,0.0,0.0,0.0202329518894,0.0,0.0,0.0229986550351,0.0,0.0,0.0
1765472111.5682454,9.655308723449707,0.0,0.0,-0.0816054061315,0.0,0.0,0.0188222634634,0.0,0.0,0.0203814003214,0.0,0.0,0.0
1765472111.5883918,9.675455093383789,0.0,0.0,-0.0816146406823,0.0,0.0,0.017441507722,0.0,0.0,0.0178836677212,0.0,0.0,0.0
1765472111.6084719,9.69553518295288,0.0,0.0,-0.0903151093819,0.0,0.0,-0.0234931637154,0.0,0.0,-0.0396983359535,0.0,0.0,0.0
1765472111.6286607,9.715723991394043,0.0,0.0,-0.0936207082874,0.0,0.0,-0.0371740548473,0.0,0.0,-0.0576593346131,0.0,0.0,0.0
1765472111.6487591,9.735822439193726,0.0,0.0,-0.0948632387962,0.0,0.0,-0.0405341570553,0.0,0.0,-0.060724975078,0.0,0.0,0.0
1765472111.6689842,9.756047487258911,0.0,0.0,-0.0953186248831,0.0,0.0,-0.0400406834362,0.0,0.0,-0.0583249838513,0.0,0.0,0.0
1765472111.6890872,9.776150465011597,0.0,0.0,-0.0954718001708,0.0,0.0,-0.0381791475136,0.0,0.0,-0.0540912686515,0.0,0.0,0.0
1765472111.7091844,9.796247720718384,0.0,0.0,-0.0955117346096,0.0,0.0,-0.0358898705213,0.0,0.0,-0.0493793761306,0.0,0.0,0.0
1765472111.729334,9.816397428512573,0.0,0.0,-0.0955090721489,0.0,0.0,-0.0335297162421,0.0,0.0,-0.0447023276533,0.0,0.0,0.0
1765472111.7494824,9.836545705795288,0.0,0.0,-0.0954915093557,0.0,0.0,-0.0312257213123,0.0,0.0,-0.0402340263447,0.0,0.0,0.0
1765472111.7698252,9.85688853263855,0.0,0.0,-0.0954705747553,0.0,0.0,-0.0290003522697,0.0,0.0,-0.0359911097936,0.0,0.0,0.0
1765472111.7899327,9.876996040344238,0.0,0.0,-0.0954457434012,0.0,0.0,-0.0269101223704,0.0,0.0,-0.0320655139012,0.0,0.0,0.0
1765472111.8101943,9.897257566452026,0.0,0.0,-0.0954223642491,0.0,0.0,-0.0249460328374,0.0,0.0,-0.0284258163312,0.0,0.0,0.0
1765472111.830296,9.917359352111816,0.0,0.0,-0.0954002728892,0.0,0.0,-0.0230998852405,0.0,0.0,-0.0250530344704,0.0,0.0,0.0
1765472111.8504016,9.937464952468872,0.0,0.0,-0.0953795182896,0.0,0.0,-0.0213642419673,0.0,0.0,-0.0219290235219,0.0,0.0,0.0
1765472111.87186,9.95892333984375,0.0,0.0,-0.0953631883385,0.0,0.0,-0.0196799529309,0.0,0.0,-0.018948208567,0.0,0.0,0.0
1765472111.8919148,9.978978157043457,0.0,0.0,-0.0953420683919,0.0,0.0,-0.0181353487995,0.0,0.0,-0.0162614287391,0.0,0.0,0.0
1765472111.9115126,9.998575925827026,0.0,0.0,-0.100670645683,0.0,0.0,-0.0410801132943,0.0,0.0,-0.0478170967686,0.0,0.0,0.0
1765472111.9316068,10.018670082092285,0.0,0.0,-0.102679694557,0.0,0.0,-0.0473827401042,0.0,0.0,-0.0552664885628,0.0,0.0,0.0
1765472111.951883,10.038946390151978,0.0,0.0,-0.103420415386,0.0,0.0,-0.0474724077584,0.0,0.0,-0.0538389385113,0.0,0.0,0.0
1765472111.9736094,10.060672760009766,0.0,0.0,-0.103678518526,0.0,0.0,-0.0453140155305,0.0,0.0,-0.0493113012395,0.0,0.0,0.0
1765472111.99299,10.080053329467773,0.0,0.0,-0.103752063267,0.0,0.0,-0.0424314742977,0.0,0.0,-0.0439034366158,0.0,0.0,0.0
1765472112.0128384,10.099901676177979,0.0,0.0,-0.103757658503,0.0,0.0,-0.0393873368295,0.0,0.0,-0.0384194039937,0.0,0.0,0.0
1765472112.0312333,10.11829662322998,0.0,0.0,-0.103736724431,0.0,0.0,-0.0364195043356,0.0,0.0,-0.0332018728324,0.0,0.0,0.0
1765472112.0518732,10.138936519622803,0.0,0.0,-0.0943535184632,0.0,0.0,0.00905902569026,0.0,0.0,0.0311646754072,0.0,0.0,0.0
1765472112.0727198,10.159783124923706,0.0,0.0,-0.0907791488387,0.0,0.0,0.0251131199837,0.0,0.0,0.0526812292152,0.0,0.0,0.0
1765472112.092141,10.179204225540161,0.0,0.0,-0.0894264348567,0.0,0.0,0.0299867199113,0.0,0.0,0.0580001214854,0.0,0.0,0.0
1765472112.1124036,10.199466943740845,0.0,0.0,-0.0889231385087,0.0,0.0,0.0306453001942,0.0,0.0,0.0572922118256,0.0,0.0,0.0
1765472112.1330032,10.220066547393799,0.0,0.0,-0.0887438198163,0.0,0.0,0.0297489803569,0.0,0.0,0.054433880449,0.0,0.0,0.0
1765472112.1530378,10.240101099014282,0.0,0.0,-0.0886880640597,0.0,0.0,0.0283142563523,0.0,0.0,0.0509046929896,0.0,0.0,0.0
1765472112.17408,10.261143207550049,0.0,0.0,-0.0886790205985,0.0,0.0,0.0267299057299,0.0,0.0,0.0472661602711,0.0,0.0,0.0
1765472112.193365,10.280428409576416,0.0,0.0,-0.0886871996109,0.0,0.0,0.0251423427611,0.0,0.0,0.0437253200304,0.0,0.0,0.0
1765472112.2134767,10.30053997039795,0.0,0.0,-0.0887013268376,0.0,0.0,0.0236046969239,0.0,0.0,0.040353173975,0.0,0.0,0.0
1765472112.2336054,10.320668697357178,0.0,0.0,-0.0887172094226,0.0,0.0,0.0221357239187,0.0,0.0,0.0371715388508,0.0,0.0,0.0
1765472112.2537553,10.340818643569946,0.0,0.0,-0.0887332214267,0.0,0.0,0.020740645037,0.0,0.0,0.0341824659002,0.0,0.0,0.0
1765472112.2739031,10.360966444015503,0.0,0.0,-0.0887485866496,0.0,0.0,0.0194169636831,0.0,0.0,0.0313757898524,0.0,0.0,0.0
1765472112.2941914,10.38125467300415,0.0,0.0,-0.088763527472,0.0,0.0,0.0181659862385,0.0,0.0,0.0287505529467,0.0,0.0,0.0
1765472112.314243,10.401306390762329,0.0,0.0,-0.0887777129958,0.0,0.0,0.0169852517796,0.0,0.0,0.0262976852132,0.0,0.0,0.0
1765472112.3343651,10.421428442001343,0.0,0.0,-0.0941371900328,0.0,0.0,-0.00853298115524,0.0,0.0,-0.0100194672414,0.0,0.0,0.0
1765472112.3544757,10.44153904914856,0.0,0.0,-0.0961755591236,0.0,0.0,-0.0172464785366,0.0,0.0,-0.0218868489294,0.0,0.0,0.0
1765472112.3746219,10.461685180664062,0.0,0.0,-0.0969436801951,0.0,0.0,-0.0195879772692,0.0,0.0,-0.0245369416052,0.0,0.0,0.0
1765472112.3947566,10.481819868087769,0.0,0.0,-0.0972264827043,0.0,0.0,-0.019549017262,0.0,0.0,-0.0237934073836,0.0,0.0,0.0
1765472112.4148967,10.501960039138794,0.0,0.0,-0.0973241329367,0.0,0.0,-0.0186544943625,0.0,0.0,-0.0218780509288,0.0,0.0,0.0
1765472112.4350228,10.522086143493652,0.0,0.0,-0.0973516406811,0.0,0.0,-0.0174844260902,0.0,0.0,-0.0196320308433,0.0,0.0,0.0
1765472112.4551754,10.542238712310791,0.0,0.0,-0.0973528063303,0.0,0.0,-0.0162592165211,0.0,0.0,-0.0173723809216,0.0,0.0,0.0
1765472112.47532,10.56238341331482,0.0,0.0,-0.0893249858146,0.0,0.0,0.0215510387926,0.0,0.0,0.0358364093847,0.0,0.0,0.0
1765472112.49559,10.582653284072876,0.0,0.0,-0.0862749152975,0.0,0.0,0.0341832432102,0.0,0.0,0.0524440777224,0.0,0.0,0.0
1765472112.515699,10.602762222290039,0.0,0.0,-0.0851284203065,0.0,0.0,0.0372821745472,0.0,0.0,0.0552923483003,0.0,0.0,0.0
1765472112.5358002,10.622863531112671,0.0,0.0,-0.0847092477814,0.0,0.0,0.0368302162724,0.0,0.0,0.0531093927935,0.0,0.0,0.0
1765472112.555931,10.642994403839111,0.0,0.0,-0.0845672911078,0.0,0.0,0.0351123976021,0.0,0.0,0.0492226618817,0.0,0.0,0.0
1765472112.5766838,10.663747072219849,0.0,0.0,-0.0845302683842,0.0,0.0,0.0329971668051,0.0,0.0,0.0448902948905,0.0,0.0,0.0
1765472112.5967793,10.683842658996582,0.0,0.0,-0.0845325139245,0.0,0.0,0.0308137124616,0.0,0.0,0.0405844048915,0.0,0.0,0.0
1765472112.6164153,10.703478574752808,0.0,0.0,-0.089895348869,0.0,0.0,0.00427123509628,0.0,0.0,0.00243096333515,0.0,0.0,0.0
1765472112.6365268,10.72359013557434,0.0,0.0,-0.0919419487263,0.0,0.0,-0.00542000672457,0.0,0.0,-0.0111520369103,0.0,0.0,0.0
1765472112.6566508,10.743714094161987,0.0,0.0,-0.092719862204,0.0,0.0,-0.00868781779444,0.0,0.0,-0.0153959728774,0.0,0.0,0.0
1765472112.6767924,10.763855695724487,0.0,0.0,-0.0930125808224,0.0,0.0,-0.00952131916307,0.0,0.0,-0.0161259892832,0.0,0.0,0.0
1765472112.6969109,10.783974170684814,0.0,0.0,-0.0931199073693,0.0,0.0,-0.00944569346158,0.0,0.0,-0.0155676336745,0.0,0.0,0.0
1765472112.717004,10.804067373275757,0.0,0.0,-0.0931565693623,0.0,0.0,-0.00904312110389,0.0,0.0,-0.0145687620105,0.0,0.0,0.0
1765472112.7371454,10.824208736419678,0.0,0.0,-0.0931663841183,0.0,0.0,-0.00853585088759,0.0,0.0,-0.0134519852673,0.0,0.0,0.0
1765472112.757289,10.84435224533081,0.0,0.0,-0.0844781473646,0.0,0.0,0.0316658243782,0.0,0.0,0.042993011076,0.0,0.0,0.0
1765472112.777427,10.864490270614624,0.0,0.0,-0.0811823377352,0.0,0.0,0.0446303590943,0.0,0.0,0.0598663937514,0.0,0.0,0.0
1765472112.797615,10.884678363800049,0.0,0.0,-0.0799484144014,0.0,0.0,0.0473104168123,0.0,0.0,0.061922436417,0.0,0.0,0.0
1765472112.817733,10.904796361923218,0.0,0.0,-0.0795018538888,0.0,0.0,0.0461869211226,0.0,0.0,0.0586155755937,0.0,0.0,0.0
1765472112.837884,10.924947261810303,0.0,0.0,-0.0793552195253,0.0,0.0,0.0437342288373,0.0,0.0,0.0535480095261,0.0,0.0,0.0
1765472112.8580647,10.945127964019775,0.0,0.0,-0.079321955532,0.0,0.0,0.0408936452724,0.0,0.0,0.0480822040365,0.0,0.0,0.0
1765472112.8785372,10.965600490570068,0.0,0.0,-0.0793294956115,0.0,0.0,0.0380002316833,0.0,0.0,0.0426897097855,0.0,0.0,0.0
1765472112.8988547,10.985918045043945,0.0,0.0,-0.0793537151607,0.0,0.0,0.0352104894545,0.0,0.0,0.0375983891894,0.0,0.0,0.0
1765472112.9185662,11.005629539489746,0.0,0.0,-0.0813869647441,0.0,0.0,0.0234066867002,0.0,0.0,0.0200761522813,0.0,0.0,0.0
1765472112.9386678,11.025731086730957,0.0,0.0,-0.0821752587733,0.0,0.0,0.0180424117893,0.0,0.0,0.0120292721952,0.0,0.0,0.0
1765472112.9587932,11.045856475830078,0.0,0.0,-0.0824864666653,0.0,0.0,0.0151949765143,0.0,0.0,0.00771933679913,0.0,0.0,0.0
1765472112.9789352,11.065998554229736,0.0,0.0,-0.0826144809824,0.0,0.0,0.0133618617522,0.0,0.0,0.00494536353835,0.0,0.0,0.0
1765472112.9990928,11.086156129837036,0.0,0.0,-0.0826718118983,0.0,0.0,0.0119657010995,0.0,0.0,0.00285881836641,0.0,0.0,0.0
1765472113.019218,11.106281280517578,0.0,0.0,-0.0827016315576,0.0,0.0,0.010784652274,0.0,0.0,0.00113105791353,0.0,0.0,0.0
1765472113.03945,11.126513242721558,0.0,0.0,-0.0827203269704,0.0,0.0,0.00972979001217,0.0,0.0,-0.000372138417997,0.0,0.0,0.0
1765472113.059651,11.146714210510254,0.0,0.0,-0.0860757181273,0.0,0.0,-0.00649126815106,0.0,0.0,-0.0229881214832,0.0,0.0,0.0
1765472113.079774,11.166837215423584,0.0,0.0,-0.0873535316071,0.0,0.0,-0.0121710752016,0.0,0.0,-0.0302647660072,0.0,0.0,0.0
1765472113.0999713,11.187034606933594,0.0,0.0,-0.0878365581696,0.0,0.0,-0.0138389413163,0.0,0.0,-0.0317408958356,0.0,0.0,0.0
1765472113.1200519,11.207115173339844,0.0,0.0,-0.0880156881547,0.0,0.0,-0.0139941762375,0.0,0.0,-0.0310658838453,0.0,0.0,0.0
1765472113.1401744,11.227237701416016,0.0,0.0,-0.0880788186655,0.0,0.0,-0.0135923762255,0.0,0.0,-0.0296327714139,0.0,0.0,0.0
1765472113.1603222,11.247385501861572,0.0,0.0,-0.0880978223732,0.0,0.0,-0.0129980027406,0.0,0.0,-0.0279710211072,0.0,0.0,0.0
1765472113.1804578,11.267521142959595,0.0,0.0,-0.0881001183605,0.0,0.0,-0.0123503561285,0.0,0.0,-0.0262818736111,0.0,0.0,0.0
1765472113.200647,11.287710428237915,0.0,0.0,-0.0901012252892,0.0,0.0,-0.0208584342048,0.0,0.0,-0.0374107655405,0.0,0.0,0.0
1765472113.2207768,11.30784010887146,0.0,0.0,-0.0908549086793,0.0,0.0,-0.0231006877554,0.0,0.0,-0.039487393039,0.0,0.0,0.0
1765472113.2408478,11.327911138534546,0.0,0.0,-0.0911318975221,0.0,0.0,-0.0229999174007,0.0,0.0,-0.0382377094893,0.0,0.0,0.0
1765472113.2609582,11.348021507263184,0.0,0.0,-0.0912271468515,0.0,0.0,-0.0220539150498,0.0,0.0,-0.0358438869803,0.0,0.0,0.0
1765472113.281348,11.368411302566528,0.0,0.0,-0.0912534413887,0.0,0.0,-0.0208329227889,0.0,0.0,-0.0331333139099,0.0,0.0,0.0
1765472113.3012059,11.388269186019897,0.0,0.0,-0.0912537868781,0.0,0.0,-0.0195544074696,0.0,0.0,-0.0304190135407,0.0,0.0,0.0
1765472113.3213308,11.40839409828186,0.0,0.0,-0.091244815279,0.0,0.0,-0.0182984633794,0.0,0.0,-0.0278122700121,0.0,0.0,0.0
1765472113.341483,11.42854642868042,0.0,0.0,-0.0932375775716,0.0,0.0,-0.0262497582494,0.0,0.0,-0.0381221268584,0.0,0.0,0.0
1765472113.3615954,11.44865870475769,0.0,0.0,-0.0939845813392,0.0,0.0,-0.0279788059869,0.0,0.0,-0.039462584703,0.0,0.0,0.0
1765472113.3817313,11.468794584274292,0.0,0.0,-0.0942556369537,0.0,0.0,-0.0274006215374,0.0,0.0,-0.0375470867227,0.0,0.0,0.0
1765472113.4018962,11.488959550857544,0.0,0.0,-0.0943453703169,0.0,0.0,-0.0260111483465,0.0,0.0,-0.0345539640707,0.0,0.0,0.0
1765472113.4220448,11.509108066558838,0.0,0.0,-0.0943666004155,0.0,0.0,-0.0243784240106,0.0,0.0,-0.0313053684361,0.0,0.0,0.0
1765472113.4421685,11.529231786727905,0.0,0.0,-0.0943622978512,0.0,0.0,-0.0227174168188,0.0,0.0,-0.0281087790885,0.0,0.0,0.0
1765472113.4623184,11.549381732940674,0.0,0.0,-0.0943489747,0.0,0.0,-0.0211069167574,0.0,0.0,-0.0250725247301,0.0,0.0,0.0
1765472113.4825284,11.569591760635376,0.0,0.0,-0.0869807198271,0.0,0.0,0.0140435341634,0.0,0.0,0.0246649695728,0.0,0.0,0.0
1765472113.5026882,11.589751482009888,0.0,0.0,-0.0841787929887,0.0,0.0,0.0260248410332,0.0,0.0,0.0406851462999,0.0,0.0,0.0
1765472113.522809,11.609872341156006,0.0,0.0,-0.0831230769984,0.0,0.0,0.0292338949666,0.0,0.0,0.0440185024664,0.0,0.0,0.0
1765472113.5429366,11.629999876022339,0.0,0.0,-0.0827345893062,0.0,0.0,0.0291652368472,0.0,0.0,0.0426860668111,0.0,0.0,0.0
1765472113.5630727,11.65013599395752,0.0,0.0,-0.0826004877788,0.0,0.0,0.0279153835992,0.0,0.0,0.0397431559812,0.0,0.0,0.0
1765472113.5832226,11.670285940170288,0.0,0.0,-0.0825629735647,0.0,0.0,0.0262833586295,0.0,0.0,0.0363500432822,0.0,0.0,0.0
1765472113.603498,11.690561294555664,0.0,0.0,-0.0825616060453,0.0,0.0,0.024571256915,0.0,0.0,0.0329406232722,0.0,0.0,0.0
1765472113.6235917,11.710654973983765,0.0,0.0,-0.0859147918523,0.0,0.0,0.00763648993105,0.0,0.0,0.00839274261153,0.0,0.0,0.0
1765472113.6437502,11.73081350326538,0.0,0.0,-0.0871969095723,0.0,0.0,0.00124155585281,0.0,0.0,-0.000763323062821,0.0,0.0,0.0
1765472113.6638708,11.75093412399292,0.0,0.0,-0.0876865617873,0.0,0.0,-0.0011230151265,0.0,0.0,-0.00404018414598,0.0,0.0,0.0
1765472113.6840467,11.77111005783081,0.0,0.0,-0.0878730041777,0.0,0.0,-0.00194867397006,0.0,0.0,-0.00507839508805,0.0,0.0,0.0
1765472113.7041888,11.791252136230469,0.0,0.0,-0.0879434631102,0.0,0.0,-0.00218878618715,0.0,0.0,-0.00527065220195,0.0,0.0,0.0
1765472113.7243161,11.811379432678223,0.0,0.0,-0.0879695708247,0.0,0.0,-0.00220798665723,0.0,0.0,-0.00514938844778,0.0,0.0,0.0
1765472113.7444398,11.83150315284729,0.0,0.0,-0.08797874179,0.0,0.0,-0.00214579069636,0.0,0.0,-0.00491803016054,0.0,0.0,0.0
1765472113.7646077,11.851670980453491,0.0,0.0,-0.0879814880444,0.0,0.0,-0.00205526077923,0.0,0.0,-0.0046534614723,0.0,0.0,0.0
1765472113.7847285,11.87179183959961,0.0,0.0,-0.0879817726676,0.0,0.0,-0.00195694426809,0.0,0.0,-0.00438562676351,0.0,0.0,0.0
1765472113.8049178,11.89198112487793,0.0,0.0,-0.0879811663983,0.0,0.0,-0.00185849218078,0.0,0.0,-0.00412513193462,0.0,0.0,0.0
1765472113.825014,11.9120774269104,0.0,0.0,-0.0879802550948,0.0,0.0,-0.00176263649679,0.0,0.0,-0.00387553400139,0.0,0.0,0.0
1765472113.8450809,11.932144165039062,0.0,0.0,-0.0879792782454,0.0,0.0,-0.00167005993299,0.0,0.0,-0.00363725167658,0.0,0.0,0.0
1765472113.8652828,11.952346086502075,0.0,0.0,-0.0879782485959,0.0,0.0,-0.00158157864806,0.0,0.0,-0.00341164193886,0.0,0.0,0.0
1765472113.886145,11.9732084274292,0.0,0.0,-0.0879772615445,0.0,0.0,-0.00149711583135,0.0,0.0,-0.00319795217681,0.0,0.0,0.0
1765472113.9055595,11.99262285232544,0.0,0.0,-0.0879763137885,0.0,0.0,-0.00141652918201,0.0,0.0,-0.00299568495459,0.0,0.0,0.0
1765472113.9256992,12.012762546539307,0.0,0.0,-0.0906486953211,0.0,0.0,-0.0135488428342,0.0,0.0,-0.0198353717254,0.0,0.0,0.0
1765472113.9458046,12.032867908477783,0.0,0.0,-0.0916607164313,0.0,0.0,-0.0173052785381,0.0,0.0,-0.0245180770054,0.0,0.0,0.0
1765472113.9659376,12.053000926971436,0.0,0.0,-0.0920380030813,0.0,0.0,-0.0179076377225,0.0,0.0,-0.0246694887621,0.0,0.0,0.0
1765472113.9860673,12.07313060760498,0.0,0.0,-0.0921730035499,0.0,0.0,-0.0173507685683,0.0,0.0,-0.0231994489043,0.0,0.0,0.0
1765472114.0062308,12.093294143676758,0.0,0.0,-0.0922158108538,0.0,0.0,-0.0163955710756,0.0,0.0,-0.0212150043939,0.0,0.0,0.0
1765472114.0263805,12.113443851470947,0.0,0.0,-0.0922237764913,0.0,0.0,-0.0153321042089,0.0,0.0,-0.0191356718886,0.0,0.0,0.0
1765472114.0465097,12.133573055267334,0.0,0.0,-0.0922189794549,0.0,0.0,-0.0142681594469,0.0,0.0,-0.0171140532307,0.0,0.0,0.0
1765472114.066645,12.153708219528198,0.0,0.0,-0.0855268209011,0.0,0.0,0.0172704117223,0.0,0.0,0.0273599380097,0.0,0.0,0.0
1765472114.0868196,12.173882961273193,0.0,0.0,-0.0829840848045,0.0,0.0,0.0278187440466,0.0,0.0,0.0413051111589,0.0,0.0,0.0
1765472114.1069975,12.194060802459717,0.0,0.0,-0.0820282194469,0.0,0.0,0.0304190943442,0.0,0.0,0.0437721203164,0.0,0.0,0.0
1765472114.1271124,12.214175701141357,0.0,0.0,-0.0816785816027,0.0,0.0,0.0300592977435,0.0,0.0,0.0420406931416,0.0,0.0,0.0
1765472114.14721,12.234273195266724,0.0,0.0,-0.0815600423414,0.0,0.0,0.0286440543078,0.0,0.0,0.0388857675243,0.0,0.0,0.0
1765472114.1674962,12.254559516906738,0.0,0.0,-0.0815289833251,0.0,0.0,0.0268974326236,0.0,0.0,0.0353567782733,0.0,0.0,0.0
1765472114.187643,12.274706363677979,0.0,0.0,-0.0815307234919,0.0,0.0,0.0250948400493,0.0,0.0,0.0318492353091,0.0,0.0,0.0
1765472114.2077816,12.29484486579895,0.0,0.0,-0.0862223189637,0.0,0.0,0.00197128973269,0.0,0.0,-0.00129927148973,0.0,0.0,0.0
1765472114.2279108,12.314974069595337,0.0,0.0,-0.0880120774626,0.0,0.0,-0.00640985733461,0.0,0.0,-0.012953171674,0.0,0.0,0.0
1765472114.2480292,12.335092544555664,0.0,0.0,-0.0886916566387,0.0,0.0,-0.00917273243937,0.0,0.0,-0.0164431344712,0.0,0.0,0.0
1765472114.2681565,12.355219841003418,0.0,0.0,-0.0889467215299,0.0,0.0,-0.00980984921921,0.0,0.0,-0.0168699044523,0.0,0.0,0.0
1765472114.2883093,12.375372648239136,0.0,0.0,-0.0890396084354,0.0,0.0,-0.0096558062834,0.0,0.0,-0.016181068846,0.0,0.0,0.0
1765472114.3084931,12.395556449890137,0.0,0.0,-0.0890706771714,0.0,0.0,-0.00922033506841,0.0,0.0,-0.0151190288522,0.0,0.0,0.0
1765472114.3286183,12.415681600570679,0.0,0.0,-0.0890783507468,0.0,0.0,-0.00869728941491,0.0,0.0,-0.0139645089133,0.0,0.0,0.0
1765472114.3488054,12.435868740081787,0.0,0.0,-0.091082204704,0.0,0.0,-0.0173178065739,0.0,0.0,-0.0255966960412,0.0,0.0,0.0
1765472114.3688648,12.455928087234497,0.0,0.0,-0.0918376736227,0.0,0.0,-0.0196669130402,0.0,0.0,-0.0281542735359,0.0,0.0,0.0
1765472114.3889642,12.476027488708496,0.0,0.0,-0.0921160495768,0.0,0.0,-0.0196704838061,0.0,0.0,-0.0273684236229,0.0,0.0,0.0
1765472114.4090412,12.49610447883606,0.0,0.0,-0.0922125447536,0.0,0.0,-0.018827387588,0.0,0.0,-0.0254233748131,0.0,0.0,0.0
1765472114.4291716,12.516234874725342,0.0,0.0,-0.0922399929314,0.0,0.0,-0.0177084904827,0.0,0.0,-0.023148070211,0.0,0.0,0.0
1765472114.449333,12.536396265029907,0.0,0.0,-0.0922415158571,0.0,0.0,-0.0165306223907,0.0,0.0,-0.0208545256027,0.0,0.0,0.0
1765472114.4694788,12.556542158126831,0.0,0.0,-0.0922336404236,0.0,0.0,-0.0153745446669,0.0,0.0,-0.0186559247996,0.0,0.0,0.0
1765472114.4896576,12.576720952987671,0.0,0.0,-0.0888810678877,0.0,0.0,0.000995665085223,0.0,0.0,0.00470350290621,0.0,0.0,0.0
1765472114.5097926,12.596855878829956,0.0,0.0,-0.0876032497554,0.0,0.0,0.00683114081204,0.0,0.0,0.0127113798111,0.0,0.0,0.0
1765472114.529938,12.617001295089722,0.0,0.0,-0.0871191031964,0.0,0.0,0.00865820406172,0.0,0.0,0.014902783405,0.0,0.0,0.0
1765472114.550067,12.63713026046753,0.0,0.0,-0.08693839723,0.0,0.0,0.00897320675713,0.0,0.0,0.0149233163386,0.0,0.0,0.0
1765472114.5701869,12.657250165939331,0.0,0.0,-0.0868735807556,0.0,0.0,0.00873039093983,0.0,0.0,0.0141652098961,0.0,0.0,0.0
1765472114.5903609,12.677424192428589,0.0,0.0,-0.0868528670942,0.0,0.0,0.00829395515498,0.0,0.0,0.0131583225298,0.0,0.0,0.0
1765472114.6105008,12.697564125061035,0.0,0.0,-0.0868488177183,0.0,0.0,0.0078024382102,0.0,0.0,0.0121029809572,0.0,0.0,0.0
1765472114.6306565,12.717719793319702,0.0,0.0,-0.0901924333881,0.0,0.0,-0.00795015724563,0.0,0.0,-0.0102112352706,0.0,0.0,0.0
1765472114.65079,12.737853288650513,0.0,0.0,-0.0914628179642,0.0,0.0,-0.0132163928856,0.0,0.0,-0.0172704572648,0.0,0.0,0.0
1765472114.670901,12.757964372634888,0.0,0.0,-0.0919403519999,0.0,0.0,-0.0145134067005,0.0,0.0,-0.0185945443976,0.0,0.0,0.0
1765472114.691053,12.778116226196289,0.0,0.0,-0.0921150044644,0.0,0.0,-0.0143335216366,0.0,0.0,-0.0178212589993,0.0,0.0,0.0
1765472114.7111993,12.798262596130371,0.0,0.0,-0.0921742390874,0.0,0.0,-0.0136280500165,0.0,0.0,-0.0163364838708,0.0,0.0,0.0
1765472114.7313378,12.818401098251343,0.0,0.0,-0.0921897243139,0.0,0.0,-0.0127593812289,0.0,0.0,-0.0146658710685,0.0,0.0,0.0
1765472114.7516034,12.838666677474976,0.0,0.0,-0.0921888999958,0.0,0.0,-0.0118642585304,0.0,0.0,-0.0130053622639,0.0,0.0,0.0
1765472114.771827,12.858890295028687,0.0,0.0,-0.0921823143556,0.0,0.0,-0.0109919430364,0.0,0.0,-0.0114229841669,0.0,0.0,0.0
1765472114.7919295,12.878992795944214,0.0,0.0,-0.0921737993407,0.0,0.0,-0.0101610969699,0.0,0.0,-0.009943054484,0.0,0.0,0.0
1765472114.812196,12.899259328842163,0.0,0.0,-0.0921649921897,0.0,0.0,-0.00937595167585,0.0,0.0,-0.00856822185108,0.0,0.0,0.0
1765472114.8322735,12.919336795806885,0.0,0.0,-0.0921563231681,0.0,0.0,-0.00863795611534,0.0,0.0,-0.00729794456333,0.0,0.0,0.0
1765472114.852443,12.93950629234314,0.0,0.0,-0.0921480651046,0.0,0.0,-0.00794571685038,0.0,0.0,-0.00612723561783,0.0,0.0,0.0
1765472114.8725202,12.959583520889282,0.0,0.0,-0.0921402825817,0.0,0.0,-0.00729705534267,0.0,0.0,-0.00505023250957,0.0,0.0,0.0
1765472114.8926778,12.979741096496582,0.0,0.0,-0.0921329800585,0.0,0.0,-0.00668963801666,0.0,0.0,-0.00406103188506,0.0,0.0,0.0
1765472114.9135501,13.000613451004028,0.0,0.0,-0.0921261820431,0.0,0.0,-0.00612043432932,0.0,0.0,-0.00315280544347,0.0,0.0,0.0
1765472114.933074,13.020137310028076,0.0,0.0,-0.0967979683506,0.0,0.0,-0.0269538155562,0.0,0.0,-0.0321258869071,0.0,0.0,0.0
1765472114.953069,13.040132284164429,0.0,0.0,-0.0985646515677,0.0,0.0,-0.0331600287186,0.0,0.0,-0.0398802395468,0.0,0.0,0.0
1765472114.9731402,13.060203552246094,0.0,0.0,-0.0992207104103,0.0,0.0,-0.0338720293862,0.0,0.0,-0.0397528280957,0.0,0.0,0.0
1765472114.9932647,13.080327987670898,0.0,0.0,-0.0994530448329,0.0,0.0,-0.0325810375684,0.0,0.0,-0.0368348994594,0.0,0.0,0.0
1765472115.013795,13.100858211517334,0.0,0.0,-0.0995243856196,0.0,0.0,-0.0306168313452,0.0,0.0,-0.0330596711917,0.0,0.0,0.0
1765472115.0335624,13.120625734329224,0.0,0.0,-0.0995350677946,0.0,0.0,-0.0284848860917,0.0,0.0,-0.0291568731941,0.0,0.0,0.0
1765472115.053703,13.140766382217407,0.0,0.0,-0.0995236521943,0.0,0.0,-0.0263724759927,0.0,0.0,-0.02539082309,0.0,0.0,0.0
1765472115.0738478,13.160911083221436,0.0,0.0,-0.0968314119764,0.0,0.0,-0.0121390559017,0.0,0.0,-0.00482256598858,0.0,0.0,0.0
1765472115.0940766,13.181139945983887,0.0,0.0,-0.0957975414611,0.0,0.0,-0.00639071214769,0.0,0.0,0.00333161522095,0.0,0.0,0.0
1765472115.114228,13.20129132270813,0.0,0.0,-0.0953985154704,0.0,0.0,-0.00391631487282,0.0,0.0,0.00668964747921,0.0,0.0,0.0
1765472115.134311,13.221374273300171,0.0,0.0,-0.0952427163397,0.0,0.0,-0.00271626283749,0.0,0.0,0.00817573252656,0.0,0.0,0.0
1765472115.1544733,13.241536617279053,0.0,0.0,-0.095180248172,0.0,0.0,-0.00202366225473,0.0,0.0,0.00891201262906,0.0,0.0,0.0
1765472115.174602,13.261665344238281,0.0,0.0,-0.0951537043453,0.0,0.0,-0.00154501199051,0.0,0.0,0.00932928524629,0.0,0.0,0.0
1765472115.1947415,13.28180480003357,0.0,0.0,-0.0951411312441,0.0,0.0,-0.00116638830035,0.0,0.0,0.00959542853263,0.0,0.0,0.0
1765472115.2148755,13.301938772201538,0.0,0.0,-0.0904559919071,0.0,0.0,0.0205190411894,0.0,0.0,0.0395752661251,0.0,0.0,0.0
1765472115.2350051,13.322068452835083,0.0,0.0,-0.0886786438412,0.0,0.0,0.0275090005244,0.0,0.0,0.0482134508306,0.0,0.0,0.0
1765472115.2551699,13.342233180999756,0.0,0.0,-0.0880133526696,0.0,0.0,0.0289436863493,0.0,0.0,0.0488604485746,0.0,0.0,0.0
1765472115.2753048,13.362368106842041,0.0,0.0,-0.0877726400317,0.0,0.0,0.0283192579775,0.0,0.0,0.0466165141102,0.0,0.0,0.0
1765472115.295682,13.382745265960693,0.0,0.0,-0.0876936595984,0.0,0.0,0.0269691609949,0.0,0.0,0.0434228437843,0.0,0.0,0.0
1765472115.3173125,13.404375791549683,0.0,0.0,-0.0876755537097,0.0,0.0,0.0253965781432,0.0,0.0,0.0400055709417,0.0,0.0,0.0
1765472115.3359783,13.423041582107544,0.0,0.0,-0.0876809191047,0.0,0.0,0.0238023156902,0.0,0.0,0.0366569480735,0.0,0.0,0.0
1765472115.3565538,13.443617105484009,0.0,0.0,-0.0770003154456,0.0,0.0,0.0711113778147,0.0,0.0,0.101622351701,0.0,0.0,0.0
1765472115.3762653,13.46332859992981,0.0,0.0,-0.0729647243607,0.0,0.0,0.0849515275768,0.0,0.0,0.1180743394,0.0,0.0,0.0
1765472115.3963914,13.483454704284668,0.0,0.0,-0.0714684510729,0.0,0.0,0.0862408430868,0.0,0.0,0.116555892572,0.0,0.0,0.0
1765472115.4165158,13.503579139709473,0.0,0.0,-0.0709411006066,0.0,0.0,0.082961613594,0.0,0.0,0.108707838308,0.0,0.0,0.0
1765472115.436661,13.52372431755066,0.0,0.0,-0.0707815302218,0.0,0.0,0.0781503772681,0.0,0.0,0.098941943473,0.0,0.0,0.0
1765472115.4567866,13.54384994506836,0.0,0.0,-0.0707605220048,0.0,0.0,0.0729608109861,0.0,0.0,0.0889229366691,0.0,0.0,0.0
1765472115.4769447,13.564007997512817,0.0,0.0,-0.0707902372967,0.0,0.0,0.0678252246847,0.0,0.0,0.0792612386554,0.0,0.0,0.0
1765472115.4970353,13.58409857749939,0.0,0.0,-0.0821996201724,0.0,0.0,0.0108610591716,0.0,0.0,-0.00243604004721,0.0,0.0,0.0
1765472115.5171907,13.604254007339478,0.0,0.0,-0.0865562766723,0.0,0.0,-0.0100900801912,0.0,0.0,-0.0315942316069,0.0,0.0,0.0
1765472115.5373876,13.624450922012329,0.0,0.0,-0.0882142717501,0.0,0.0,-0.0173422504439,0.0,0.0,-0.0408227688478,0.0,0.0,0.0
1765472115.5575995,13.644662857055664,0.0,0.0,-0.0888401425989,0.0,0.0,-0.0193892668121,0.0,0.0,-0.0425304295157,0.0,0.0,0.0
1765472115.5776823,13.664745569229126,0.0,0.0,-0.0890713839591,0.0,0.0,-0.0194787850546,0.0,0.0,-0.0414598824081,0.0,0.0,0.0
1765472115.5978189,13.684882164001465,0.0,0.0,-0.0891520538616,0.0,0.0,-0.0188523466667,0.0,0.0,-0.0394208544466,0.0,0.0,0.0
1765472115.617955,13.705018281936646,0.0,0.0,-0.0891755205596,0.0,0.0,-0.0179828330598,0.0,0.0,-0.037099830154,0.0,0.0,0.0
1765472115.6381075,13.725170850753784,0.0,0.0,-0.0851676081256,0.0,0.0,0.00125293392769,0.0,0.0,-0.00922354497764,0.0,0.0,0.0
1765472115.6582208,13.745284080505371,0.0,0.0,-0.0836422704407,0.0,0.0,0.00792378701141,0.0,0.0,0.000341302967754,0.0,0.0,0.0
1765472115.6783416,13.76540493965149,0.0,0.0,-0.0830663577447,0.0,0.0,0.00983103972125,0.0,0.0,0.00299223607799,0.0,0.0,0.0
1765472115.6986506,13.785713911056519,0.0,0.0,-0.082853235858,0.0,0.0,0.00995747359404,0.0,0.0,0.00308452645286,0.0,0.0,0.0
1765472115.7200737,13.80713701248169,0.0,0.0,-0.0827784818047,0.0,0.0,0.00944221925475,0.0,0.0,0.00227913499378,0.0,0.0,0.0
1765472115.7388408,13.825904130935669,0.0,0.0,-0.0827561699292,0.0,0.0,0.00871812659696,0.0,0.0,0.00120501211686,0.0,0.0,0.0
1765472115.7589717,13.84603500366211,0.0,0.0,-0.0827536386193,0.0,0.0,0.0079510453812,0.0,0.0,0.000101174852879,0.0,0.0,0.0
1765472115.77906,13.86612319946289,0.0,0.0,-0.0881045415552,0.0,0.0,-0.0172072477227,0.0,0.0,-0.0349942882871,0.0,0.0,0.0
1765472115.7992275,13.886290788650513,0.0,0.0,-0.0901372305397,0.0,0.0,-0.025578457333,0.0,0.0,-0.0456877793754,0.0,0.0,0.0
1765472115.8196678,13.906731128692627,0.0,0.0,-0.090900926979,0.0,0.0,-0.0275911258577,0.0,0.0,-0.0472115752684,0.0,0.0,0.0
1765472115.8397005,13.926763772964478,0.0,0.0,-0.0911797957154,0.0,0.0,-0.0272337121494,0.0,0.0,-0.045386497087,0.0,0.0,0.0
1765472115.8598258,13.946889162063599,0.0,0.0,-0.0912737874843,0.0,0.0,-0.0260302524039,0.0,0.0,-0.0424328746943,0.0,0.0,0.0
1765472115.8799303,13.966993570327759,0.0,0.0,-0.0912977560738,0.0,0.0,-0.024560984304,0.0,0.0,-0.0391914928684,0.0,0.0,0.0
1765472115.9006474,13.98771071434021,0.0,0.0,-0.0912967891787,0.0,0.0,-0.0230281389486,0.0,0.0,-0.0359432381921,0.0,0.0,0.0
1765472115.920412,14.00747537612915,0.0,0.0,-0.0912841924131,0.0,0.0,-0.0215421605246,0.0,0.0,-0.0328608165103,0.0,0.0,0.0
1765472115.9405432,14.02760648727417,0.0,0.0,-0.095279339052,0.0,0.0,-0.0384341801353,0.0,0.0,-0.0555026905294,0.0,0.0,0.0
1765472115.9607444,14.047807693481445,0.0,0.0,-0.096783311448,0.0,0.0,-0.0428323254755,0.0,0.0,-0.0600790641056,0.0,0.0,0.0
1765472115.98078,14.067843198776245,0.0,0.0,-0.0973355652948,0.0,0.0,-0.0425706623639,0.0,0.0,-0.0580263241174,0.0,0.0,0.0
1765472116.000902,14.087965250015259,0.0,0.0,-0.0975250558236,0.0,0.0,-0.0406372105915,0.0,0.0,-0.0536988424194,0.0,0.0,0.0
1765472116.0210292,14.108092546463013,0.0,0.0,-0.0975769260984,0.0,0.0,-0.0381699407696,0.0,0.0,-0.0487484059903,0.0,0.0,0.0
1765472116.0410695,14.128132820129395,0.0,0.0,-0.0975773334248,0.0,0.0,-0.0355991546122,0.0,0.0,-0.0437927590971,0.0,0.0,0.0
1765472116.061223,14.14828634262085,0.0,0.0,-0.0975592324214,0.0,0.0,-0.0330837187577,0.0,0.0,-0.0390533384081,0.0,0.0,0.0
1765472116.0815427,14.168606042861938,0.0,0.0,-0.093524951323,0.0,0.0,-0.0123195127269,0.0,0.0,-0.00898768642437,0.0,0.0,0.0
1765472116.1016934,14.188756704330444,0.0,0.0,-0.0919797764526,0.0,0.0,-0.00429863982683,0.0,0.0,0.00245373566738,0.0,0.0,0.0
1765472116.1218927,14.208956003189087,0.0,0.0,-0.0913875840974,0.0,0.0,-0.00115310667892,0.0,0.0,0.00677280534348,0.0,0.0,0.0
1765472116.141936,14.228999376296997,0.0,0.0,-0.0911600912098,0.0,0.0,0.000121362516274,0.0,0.0,0.00836040948811,0.0,0.0,0.0
1765472116.1622374,14.249300718307495,0.0,0.0,-0.0910722216586,0.0,0.0,0.000672521275319,0.0,0.0,0.00889396721697,0.0,0.0,0.0
1765472116.1822734,14.269336700439453,0.0,0.0,-0.09103789274,0.0,0.0,0.00093832237811,0.0,0.0,0.00901485729596,0.0,0.0,0.0
1765472116.2025492,14.289612531661987,0.0,0.0,-0.0910241282333,0.0,0.0,0.00108813080042,0.0,0.0,0.0089704416,0.0,0.0,0.0
1765472116.225294,14.312357425689697,0.0,0.0,-0.093692248591,0.0,0.0,-0.0110475329057,0.0,0.0,-0.00821128231642,0.0,0.0,0.0
1765472116.244496,14.331559419631958,0.0,0.0,-0.0947027768443,0.0,0.0,-0.0148084424629,0.0,0.0,-0.0132261688424,0.0,0.0,0.0
1765472116.264035,14.35109829902649,0.0,0.0,-0.0950792382387,0.0,0.0,-0.0154179319524,0.0,0.0,-0.0137041304905,0.0,0.0,0.0
1765472116.2830958,14.370159149169922,0.0,0.0,-0.0952137979269,0.0,0.0,-0.0148776239458,0.0,0.0,-0.0125651185745,0.0,0.0,0.0
1765472116.3032322,14.390295505523682,0.0,0.0,-0.0952565606374,0.0,0.0,-0.0139470468089,0.0,0.0,-0.0109137301435,0.0,0.0,0.0
1765472116.3236117,14.410675048828125,0.0,0.0,-0.0952647744764,0.0,0.0,-0.0129127507173,0.0,0.0,-0.00916408544147,0.0,0.0,0.0
1765472116.3436875,14.430750846862793,0.0,0.0,-0.0952602894865,0.0,0.0,-0.01188164744,0.0,0.0,-0.00746808849065,0.0,0.0,0.0
1765472116.363863,14.450926303863525,0.0,0.0,-0.0939148554853,0.0,0.0,-0.00479306483063,0.0,0.0,0.00263067589946,0.0,0.0,0.0
1765472116.3838944,14.47095775604248,0.0,0.0,-0.0933983216886,0.0,0.0,-0.0019442619969,0.0,0.0,0.00653082129913,0.0,0.0,0.0
1765472116.4040453,14.491108655929565,0.0,0.0,-0.0931991270319,0.0,0.0,-0.000730637312418,0.0,0.0,0.00804024182721,0.0,0.0,0.0
1765472116.4241893,14.511252641677856,0.0,0.0,-0.0931215086438,0.0,0.0,-0.00015471334974,0.0,0.0,0.00861775246269,0.0,0.0,0.0
1765472116.444345,14.531408309936523,0.0,0.0,-0.0930905455298,0.0,0.0,0.000166446932525,0.0,0.0,0.00882362589546,0.0,0.0,0.0
1765472116.4645028,14.551566123962402,0.0,0.0,-0.0930775576749,0.0,0.0,0.000379966606048,0.0,0.0,0.00887358927944,0.0,0.0,0.0
1765472116.4846115,14.571674823760986,0.0,0.0,-0.0930715631733,0.0,0.0,0.000542858780553,0.0,0.0,0.00885159584338,0.0,0.0,0.0
1765472116.5048358,14.591899156570435,0.0,0.0,-0.0950732568612,0.0,0.0,-0.00847684654324,0.0,0.0,-0.00397726174297,0.0,0.0,0.0
1765472116.5249739,14.612037181854248,0.0,0.0,-0.0958308970541,0.0,0.0,-0.0112332933125,0.0,0.0,-0.00770998555305,0.0,0.0,0.0
1765472116.5450346,14.632097959518433,0.0,0.0,-0.0961129711118,0.0,0.0,-0.0116363370413,0.0,0.0,-0.00805552957662,0.0,0.0,0.0
1765472116.565074,14.652137279510498,0.0,0.0,-0.0962135766471,0.0,0.0,-0.0111802017277,0.0,0.0,-0.00719305308104,0.0,0.0,0.0
1765472116.5851848,14.672248125076294,0.0,0.0,-0.0962452100994,0.0,0.0,-0.0104342502366,0.0,0.0,-0.00595057380964,0.0,0.0,0.0
1765472116.6053584,14.692421674728394,0.0,0.0,-0.0962508416723,0.0,0.0,-0.00961504194694,0.0,0.0,-0.00464093399019,0.0,0.0,0.0
1765472116.6255074,14.712570667266846,0.0,0.0,-0.0962470225473,0.0,0.0,-0.008802077849,0.0,0.0,-0.00337670150183,0.0,0.0,0.0
1765472116.6456537,14.732717037200928,0.0,0.0,-0.0868836473815,0.0,0.0,0.0346985851779,0.0,0.0,0.0573876084937,0.0,0.0,0.0
1765472116.665757,14.752820253372192,0.0,0.0,-0.0833304404707,0.0,0.0,0.0488362578888,0.0,0.0,0.0754927482068,0.0,0.0,0.0
1765472116.686025,14.773088216781616,0.0,0.0,-0.0819990152811,0.0,0.0,0.051874690277,0.0,0.0,0.0776093677452,0.0,0.0,0.0
1765472116.7060447,14.793107986450195,0.0,0.0,-0.0815162839944,0.0,0.0,0.0507991288836,0.0,0.0,0.0739291993761,0.0,0.0,0.0
1765472116.7262285,14.813291788101196,0.0,0.0,-0.0813566081002,0.0,0.0,0.0482742763988,0.0,0.0,0.0683301641961,0.0,0.0,0.0
1765472116.7463715,14.833434820175171,0.0,0.0,-0.081319445338,0.0,0.0,0.0453170475787,0.0,0.0,0.0622863463833,0.0,0.0,0.0
1765472116.768332,14.855395317077637,0.0,0.0,-0.0813274674254,0.0,0.0,0.042306524187,0.0,0.0,0.0563368929507,0.0,0.0,0.0
1765472116.786768,14.873831272125244,0.0,0.0,-0.0813513753452,0.0,0.0,0.0393795312275,0.0,0.0,0.0506689937459,0.0,0.0,0.0
1765472116.8069751,14.894038438796997,0.0,0.0,-0.0867276644317,0.0,0.0,0.0121683927337,0.0,0.0,0.0112913369255,0.0,0.0,0.0
1765472116.8272266,14.914289951324463,0.0,0.0,-0.0887835357961,0.0,0.0,0.00187043442041,0.0,0.0,-0.00339007512038,0.0,0.0,0.0
1765472116.8472753,14.934338569641113,0.0,0.0,-0.0895689094423,0.0,0.0,-0.00195419070162,0.0,0.0,-0.00862960193787,0.0,0.0,0.0
1765472116.8675382,14.954601526260376,0.0,0.0,-0.0898681543644,0.0,0.0,-0.00330696211073,0.0,0.0,-0.0102739768473,0.0,0.0,0.0
1765472116.887998,14.975061416625977,0.0,0.0,-0.089981414733,0.0,0.0,-0.00371738817421,0.0,0.0,-0.0105577423483,0.0,0.0,0.0
1765472116.9092338,14.996297121047974,0.0,0.0,-0.0900235937229,0.0,0.0,-0.00377054639079,0.0,0.0,-0.0103346965734,0.0,0.0,0.0
1765472116.927992,15.015055418014526,0.0,0.0,-0.0900385297778,0.0,0.0,-0.00369037732059,0.0,0.0,-0.00993234523346,0.0,0.0,0.0
1765472116.948272,15.035335302352905,0.0,0.0,-0.0887064790608,0.0,0.0,0.00254018684303,0.0,0.0,-0.000961829218062,0.0,0.0,0.0
1765472116.96822,15.055283308029175,0.0,0.0,-0.0882007067061,0.0,0.0,0.00459717668717,0.0,0.0,0.00193462546453,0.0,0.0,0.0
1765472116.9883263,15.075389623641968,0.0,0.0,-0.0880108616959,0.0,0.0,0.00507836299572,0.0,0.0,0.00255151221131,0.0,0.0,0.0
1765472117.008454,15.09551739692688,0.0,0.0,-0.0879416539248,0.0,0.0,0.00497639629582,0.0,0.0,0.00233759107668,0.0,0.0,0.0
1765472117.0285985,15.115661859512329,0.0,0.0,-0.0879183966319,0.0,0.0,0.00466994826253,0.0,0.0,0.00184445741088,0.0,0.0,0.0
1765472117.0489,15.135963201522827,0.0,0.0,-0.0879125022244,0.0,0.0,0.00430275540225,0.0,0.0,0.00128043922282,0.0,0.0,0.0
1765472117.0702937,15.157356977462769,0.0,0.0,-0.0879129749926,0.0,0.0,0.00392734765613,0.0,0.0,0.000720684322897,0.0,0.0,0.0
1765472117.0904956,15.177558898925781,0.0,0.0,-0.0912581641167,0.0,0.0,-0.0117224532243,0.0,0.0,-0.0211301668488,0.0,0.0,0.0
1765472117.110148,15.197211265563965,0.0,0.0,-0.0925280537313,0.0,0.0,-0.0168543637948,0.0,0.0,-0.0276940085407,0.0,0.0,0.0
1765472117.1290522,15.216115474700928,0.0,0.0,-0.0930038748481,0.0,0.0,-0.0180098490828,0.0,0.0,-0.0285285853116,0.0,0.0,0.0
1765472117.1519763,15.239039659500122,0.0,0.0,-0.0931779289074,0.0,0.0,-0.0176847784109,0.0,0.0,-0.0272672849002,0.0,0.0,0.0
1765472117.169881,15.256944417953491,0.0,0.0,-0.0932350855999,0.0,0.0,-0.0168405771983,0.0,0.0,-0.0253222183659,0.0,0.0,0.0
1765472117.1899998,15.277063131332397,0.0,0.0,-0.0932487658179,0.0,0.0,-0.0158414109094,0.0,0.0,-0.0232164059927,0.0,0.0,0.0
1765472117.2101169,15.29718017578125,0.0,0.0,-0.093246389769,0.0,0.0,-0.0148211176678,0.0,0.0,-0.0211403916885,0.0,0.0,0.0
1765472117.2311282,15.318191528320312,0.0,0.0,-0.0878837609664,0.0,0.0,0.0110485336645,0.0,0.0,0.0155704961044,0.0,0.0,0.0
1765472117.2510767,15.33814001083374,0.0,0.0,-0.0858489490237,0.0,0.0,0.019647432699,0.0,0.0,0.0271360328547,0.0,0.0,0.0
1765472117.2719257,15.358989000320435,0.0,0.0,-0.0850838028819,0.0,0.0,0.0218530758637,0.0,0.0,0.0294515922805,0.0,0.0,0.0
1765472117.2916076,15.378670930862427,0.0,0.0,-0.084803188874,0.0,0.0,0.0216912020912,0.0,0.0,0.0283968410997,0.0,0.0,0.0
1765472117.312657,15.399720430374146,0.0,0.0,-0.0847068104861,0.0,0.0,0.0206794872053,0.0,0.0,0.0261834449086,0.0,0.0,0.0
1765472117.3324056,15.419468879699707,0.0,0.0,-0.084681033095,0.0,0.0,0.0194024985882,0.0,0.0,0.023664480427,0.0,0.0,0.0
1765472117.352008,15.439071416854858,0.0,0.0,-0.0846811413175,0.0,0.0,0.0180759025167,0.0,0.0,0.0211471776915,0.0,0.0,0.0
1765472117.3722143,15.459277629852295,0.0,0.0,-0.0846906400091,0.0,0.0,0.0167798986873,0.0,0.0,0.0187437838167,0.0,0.0,0.0
1765472117.3930187,15.480082035064697,0.0,0.0,-0.0847030164416,0.0,0.0,0.0155403438397,0.0,0.0,0.016486294363,0.0,0.0,0.0
1765472117.4124358,15.499499082565308,0.0,0.0,-0.0847161866912,0.0,0.0,0.0143680802378,0.0,0.0,0.0143867060484,0.0,0.0,0.0
1765472117.4325485,15.519611835479736,0.0,0.0,-0.0847291793831,0.0,0.0,0.0132657042344,0.0,0.0,0.0124443167847,0.0,0.0,0.0
1765472117.4527624,15.539825677871704,0.0,0.0,-0.0847414926329,0.0,0.0,0.0122299486331,0.0,0.0,0.0106495591111,0.0,0.0,0.0
1765472117.4733105,15.560373783111572,0.0,0.0,-0.0847530445406,0.0,0.0,0.0112565142082,0.0,0.0,0.00899201986004,0.0,0.0,0.0
1765472117.4930284,15.580091714859009,0.0,0.0,-0.0847640272029,0.0,0.0,0.0103442521379,0.0,0.0,0.0074667610088,0.0,0.0,0.0
1765472117.5130427,15.600106000900269,0.0,0.0,-0.0847743074681,0.0,0.0,0.00948967709663,0.0,0.0,0.00606492221645,0.0,0.0,0.0
1765472117.533194,15.620257377624512,0.0,0.0,-0.0854522382978,0.0,0.0,0.00563975428831,0.0,0.0,0.000524816621783,0.0,0.0,0.0
1765472117.5534394,15.640502691268921,0.0,0.0,-0.0857144759111,0.0,0.0,0.00393428300546,0.0,0.0,-0.00186850721312,0.0,0.0,0.0
1765472117.5735207,15.660583972930908,0.0,0.0,-0.0858174441249,0.0,0.0,0.00306658831573,0.0,0.0,-0.00302610133108,0.0,0.0,0.0
1765472117.5936234,15.680686712265015,0.0,0.0,-0.0858592731264,0.0,0.0,0.00253551784698,0.0,0.0,-0.00368169075564,0.0,0.0,0.0
1765472117.613756,15.700819253921509,0.0,0.0,-0.0858775272616,0.0,0.0,0.00214836179681,0.0,0.0,-0.00411816999151,0.0,0.0,0.0
1765472117.6339254,15.720988750457764,0.0,0.0,-0.0858865849269,0.0,0.0,0.00183029164868,0.0,0.0,-0.00444601251686,0.0,0.0,0.0
1765472117.6540809,15.741144180297852,0.0,0.0,-0.0858919736975,0.0,0.0,0.00155209750162,0.0,0.0,-0.00470910219424,0.0,0.0,0.0
1765472117.6742172,15.761280536651611,0.0,0.0,-0.0838908917399,0.0,0.0,0.0104542497231,0.0,0.0,0.00783613787756,0.0,0.0,0.0
1765472117.694403,15.781466245651245,0.0,0.0,-0.0831343192749,0.0,0.0,0.0130974180783,0.0,0.0,0.011301559867,0.0,0.0,0.0
1765472117.7144973,15.801560640335083,0.0,0.0,-0.0828534340598,0.0,0.0,0.0133928300199,0.0,0.0,0.0113961547689,0.0,0.0,0.0
1765472117.73511,15.822173357009888,0.0,0.0,-0.0827539916203,0.0,0.0,0.0128344084096,0.0,0.0,0.0102975119798,0.0,0.0,0.0
1765472117.7547956,15.841858863830566,0.0,0.0,-0.0827234374106,0.0,0.0,0.0119904149189,0.0,0.0,0.00883131204199,0.0,0.0,0.0
1765472117.774957,15.862020254135132,0.0,0.0,-0.0827188999993,0.0,0.0,0.0110779840956,0.0,0.0,0.00731105657661,0.0,0.0,0.0
1765472117.7950718,15.882135152816772,0.0,0.0,-0.0827237902153,0.0,0.0,0.0101770145419,0.0,0.0,0.00584942937147,0.0,0.0,0.0
1765472117.8155074,15.902570724487305,0.0,0.0,-0.0673606723298,0.0,0.0,0.0795041337429,0.0,0.0,0.102350747371,0.0,0.0,0.0
1765472117.835562,15.922625303268433,0.0,0.0,-0.061545646475,0.0,0.0,0.100708754503,0.0,0.0,0.129043361139,0.0,0.0,0.0
1765472117.8556645,15.94272780418396,0.0,0.0,-0.0593802707683,0.0,0.0,0.103813672703,0.0,0.0,0.129748643775,0.0,0.0,0.0
1765472117.8758893,15.962952613830566,0.0,0.0,-0.0586076953265,0.0,0.0,0.10028209346,0.0,0.0,0.12117836322,0.0,0.0,0.0
1765472117.8959563,15.983019590377808,0.0,0.0,-0.0583655997556,0.0,0.0,0.0944941930433,0.0,0.0,0.109704625177,0.0,0.0,0.0
1765472117.91616,16.003223419189453,0.0,0.0,-0.058322372528,0.0,0.0,0.0881004304395,0.0,0.0,0.097705287518,0.0,0.0,0.0
1765472117.936212,16.02327537536621,0.0,0.0,-0.058353496625,0.0,0.0,0.0817357178472,0.0,0.0,0.0860865192601,0.0,0.0,0.0
1765472117.9563797,16.043442964553833,0.0,0.0,-0.073780233508,0.0,0.0,0.00544584561814,0.0,0.0,-0.0227146831683,0.0,0.0,0.0
1765472117.9765308,16.063594102859497,0.0,0.0,-0.0796672412949,0.0,0.0,-0.0223712670954,0.0,0.0,-0.0608669649157,0.0,0.0,0.0
1765472117.9966364,16.083699703216553,0.0,0.0,-0.0819043886902,0.0,0.0,-0.031697445552,0.0,0.0,-0.0721629967185,0.0,0.0,0.0
1765472118.0167465,16.10380983352661,0.0,0.0,-0.0827456366186,0.0,0.0,-0.0340104086914,0.0,0.0,-0.0733621006372,0.0,0.0,0.0
1765472118.0369008,16.123964071273804,0.0,0.0,-0.0830534973082,0.0,0.0,-0.0336980385113,0.0,0.0,-0.0708659570007,0.0,0.0,0.0
1765472118.0569975,16.144060850143433,0.0,0.0,-0.0831577797866,0.0,0.0,-0.0324376579389,0.0,0.0,-0.0671184558018,0.0,0.0,0.0
1765472118.0771425,16.16420578956604,0.0,0.0,-0.0831852309684,0.0,0.0,-0.0308643883738,0.0,0.0,-0.0630362913813,0.0,0.0,0.0
1765472118.0974185,16.184481859207153,0.0,0.0,-0.0865252476378,0.0,0.0,-0.0444961374693,0.0,0.0,-0.0802740641349,0.0,0.0,0.0
1765472118.1174967,16.204560041427612,0.0,0.0,-0.087778750005,0.0,0.0,-0.0476698272824,0.0,0.0,-0.0824447262554,0.0,0.0,0.0
1765472118.1376998,16.22476315498352,0.0,0.0,-0.0882354353618,0.0,0.0,-0.0469546880508,0.0,0.0,-0.0791311182051,0.0,0.0,0.0
1765472118.1578174,16.24488067626953,0.0,0.0,-0.0883883826548,0.0,0.0,-0.0448566905959,0.0,0.0,-0.0739827272567,0.0,0.0,0.0
1765472118.1778984,16.26496171951294,0.0,0.0,-0.0884265369748,0.0,0.0,-0.0423263001148,0.0,0.0,-0.0683747527156,0.0,0.0,0.0
1765472118.1980228,16.285086154937744,0.0,0.0,-0.088421648743,0.0,0.0,-0.0397248258204,0.0,0.0,-0.0628254950777,0.0,0.0,0.0
1765472118.2187874,16.305850744247437,0.0,0.0,-0.0884013391978,0.0,0.0,-0.0371867305991,0.0,0.0,-0.0575209872806,0.0,0.0,0.0
1765472118.238288,16.325351238250732,0.0,0.0,-0.0883762416105,0.0,0.0,-0.0347577811266,0.0,0.0,-0.0525174967571,0.0,0.0,0.0
1765472118.2585716,16.345634937286377,0.0,0.0,-0.0936995951861,0.0,0.0,-0.0569214147295,0.0,0.0,-0.0819467178679,0.0,0.0,0.0
1765472118.279624,16.366687297821045,0.0,0.0,-0.0956985074893,0.0,0.0,-0.0623907750588,0.0,0.0,-0.0872735599168,0.0,0.0,0.0
1765472118.2988374,16.385900735855103,0.0,0.0,-0.0964302136462,0.0,0.0,-0.0616654436314,0.0,0.0,-0.0838072500508,0.0,0.0,0.0
1765472118.319319,16.4063823223114,0.0,0.0,-0.0966785267923,0.0,0.0,-0.0587312524799,0.0,0.0,-0.0773566827597,0.0,0.0,0.0
1765472118.3391657,16.426229000091553,0.0,0.0,-0.0967433259572,0.0,0.0,-0.055110466299,0.0,0.0,-0.0701314365508,0.0,0.0,0.0
1765472118.3592892,16.44635248184204,0.0,0.0,-0.0967399719826,0.0,0.0,-0.0513740740343,0.0,0.0,-0.0629481852987,0.0,0.0,0.0
1765472118.379621,16.466684341430664,0.0,0.0,-0.096712144806,0.0,0.0,-0.0477332362557,0.0,0.0,-0.056100602739,0.0,0.0,0.0
1765472118.3997066,16.486769914627075,0.0,0.0,-0.0879887706212,0.0,0.0,-0.00460081482284,0.0,0.0,0.00564417486696,0.0,0.0,0.0
1765472118.4198096,16.50687289237976,0.0,0.0,-0.084659880989,0.0,0.0,0.0111266727171,0.0,0.0,0.0274246106679,0.0,0.0,0.0
1765472118.4399166,16.52697992324829,0.0,0.0,-0.0833948422442,0.0,0.0,0.0164049424225,0.0,0.0,0.034017179727,0.0,0.0,0.0
1765472118.4600806,16.547143936157227,0.0,0.0,-0.0829190025347,0.0,0.0,0.0177224052487,0.0,0.0,0.0348990562628,0.0,0.0,0.0
1765472118.4801824,16.567245721817017,0.0,0.0,-0.0827448593589,0.0,0.0,0.0175585851938,0.0,0.0,0.0336902565532,0.0,0.0,0.0
1765472118.5004592,16.587522506713867,0.0,0.0,-0.0826857277523,0.0,0.0,0.0168614676158,0.0,0.0,0.0317715472625,0.0,0.0,0.0
1765472118.5205379,16.607601165771484,0.0,0.0,-0.0826702174943,0.0,0.0,0.0159920854839,0.0,0.0,0.0296663387032,0.0,0.0,0.0
1765472118.540687,16.627750396728516,0.0,0.0,-0.0833393622328,0.0,0.0,0.0120356054069,0.0,0.0,0.0233143730132,0.0,0.0,0.0
1765472118.5607867,16.647850036621094,0.0,0.0,-0.0835993632922,0.0,0.0,0.0101898759806,0.0,0.0,0.0200851950695,0.0,0.0,0.0
1765472118.580891,16.667954206466675,0.0,0.0,-0.0837025759016,0.0,0.0,0.00916749565056,0.0,0.0,0.0180950374399,0.0,0.0,0.0
1765472118.601001,16.688064336776733,0.0,0.0,-0.0837453958284,0.0,0.0,0.00847201176846,0.0,0.0,0.0166144760151,0.0,0.0,0.0
1765472118.6211386,16.70820188522339,0.0,0.0,-0.0837654362809,0.0,0.0,0.0079201191716,0.0,0.0,0.0153779156565,0.0,0.0,0.0
1765472118.6412868,16.728350162506104,0.0,0.0,-0.0837763003791,0.0,0.0,0.00743746203127,0.0,0.0,0.0142725632995,0.0,0.0,0.0
1765472118.6614292,16.74849247932434,0.0,0.0,-0.0837835388112,0.0,0.0,0.00699513664363,0.0,0.0,0.0132547856967,0.0,0.0,0.0
1765472118.6815627,16.76862597465515,0.0,0.0,-0.0804476841813,0.0,0.0,0.0218364966645,0.0,0.0,0.033584372498,0.0,0.0,0.0
1765472118.7017102,16.78877353668213,0.0,0.0,-0.0791863811864,0.0,0.0,0.0262327396932,0.0,0.0,0.0387725728106,0.0,0.0,0.0
1765472118.7218637,16.808927059173584,0.0,0.0,-0.0787182582397,0.0,0.0,0.0267024979184,0.0,0.0,0.0383384099892,0.0,0.0,0.0
1765472118.7419994,16.829062700271606,0.0,0.0,-0.0785527044668,0.0,0.0,0.0257380939749,0.0,0.0,0.035915581547,0.0,0.0,0.0
1765472118.7621508,16.84921407699585,0.0,0.0,-0.0785023298974,0.0,0.0,0.0242913750962,0.0,0.0,0.0328886896773,0.0,0.0,0.0
1765472118.7823296,16.86939287185669,0.0,0.0,-0.0784951787174,0.0,0.0,0.0227223347469,0.0,0.0,0.029776235814,0.0,0.0,0.0
1765472118.8024712,16.88953447341919,0.0,0.0,-0.0785038587947,0.0,0.0,0.0211652588227,0.0,0.0,0.0267678609323,0.0,0.0,0.0
1765472118.8227148,16.909778118133545,0.0,0.0,-0.0892108174001,0.0,0.0,-0.0291577015316,0.0,0.0,-0.0441760072364,0.0,0.0,0.0
1765472118.8442862,16.931349515914917,0.0,0.0,-0.0932778792603,0.0,0.0,-0.0458954792609,0.0,0.0,-0.0662812868938,0.0,0.0,0.0
1765472118.86294,16.950003385543823,0.0,0.0,-0.0948064761235,0.0,0.0,-0.04992551955,0.0,0.0,-0.0700375179981,0.0,0.0,0.0
1765472118.8830342,16.970097541809082,0.0,0.0,-0.0953642000135,0.0,0.0,-0.0492243104993,0.0,0.0,-0.0670911275535,0.0,0.0,0.0
1765472118.9032729,16.990336179733276,0.0,0.0,-0.0955524049522,0.0,0.0,-0.0468432247583,0.0,0.0,-0.0618842144175,0.0,0.0,0.0
1765472118.9236627,17.01072597503662,0.0,0.0,-0.0956005470413,0.0,0.0,-0.0439433669834,0.0,0.0,-0.0561005598163,0.0,0.0,0.0
1765472118.9436488,17.030712127685547,0.0,0.0,-0.0955965033355,0.0,0.0,-0.0409627105009,0.0,0.0,-0.0503672192354,0.0,0.0,0.0
1765472118.9637764,17.05083966255188,0.0,0.0,-0.0969105506947,0.0,0.0,-0.0441633931044,0.0,0.0,-0.0534167454251,0.0,0.0,0.0
1765472118.983909,17.070972204208374,0.0,0.0,-0.097388679656,0.0,0.0,-0.0433095912994,0.0,0.0,-0.0507244713114,0.0,0.0,0.0
1765472119.0044668,17.091530084609985,0.0,0.0,-0.0975483695792,0.0,0.0,-0.0410253581072,0.0,0.0,-0.0461118375022,0.0,0.0,0.0
1765472119.0242186,17.111281871795654,0.0,0.0,-0.0975873756735,0.0,0.0,-0.0383118971327,0.0,0.0,-0.0410303440426,0.0,0.0,0.0
1765472119.0443861,17.131449460983276,0.0,0.0,-0.0975814352059,0.0,0.0,-0.0355483710112,0.0,0.0,-0.0360225685399,0.0,0.0,0.0
1765472119.0645008,17.151564121246338,0.0,0.0,-0.0975596172205,0.0,0.0,-0.0328733300418,0.0,0.0,-0.0312795226766,0.0,0.0,0.0
1765472119.0846875,17.171750783920288,0.0,0.0,-0.0975331227254,0.0,0.0,-0.0303308064662,0.0,0.0,-0.0268543016154,0.0,0.0,0.0
1765472119.1054797,17.192543029785156,0.0,0.0,-0.0928266013448,0.0,0.0,-0.00642994386936,0.0,0.0,0.00724666241205,0.0,0.0,0.0
1765472119.1250632,17.21212649345398,0.0,0.0,-0.0910269564163,0.0,0.0,0.00252842319911,0.0,0.0,0.0195406029318,0.0,0.0,0.0
1765472119.1452768,17.232340097427368,0.0,0.0,-0.0903401497536,0.0,0.0,0.00580765980128,0.0,0.0,0.0235663854904,0.0,0.0,0.0
1765472119.1654828,17.252546072006226,0.0,0.0,-0.0900789599977,0.0,0.0,0.00691883191437,0.0,0.0,0.0244541030218,0.0,0.0,0.0
1765472119.185494,17.272557258605957,0.0,0.0,-0.0899806070027,0.0,0.0,0.0072013873078,0.0,0.0,0.0241606305921,0.0,0.0,0.0
1765472119.205582,17.29264521598816,0.0,0.0,-0.08994461,0.0,0.0,0.00716800140275,0.0,0.0,0.0234352233339,0.0,0.0,0.0
1765472119.2258034,17.312866687774658,0.0,0.0,-0.0899323854782,0.0,0.0,0.00701492126163,0.0,0.0,0.0225627819557,0.0,0.0,0.0
1765472119.2459393,17.33300256729126,0.0,0.0,-0.0899292850425,0.0,0.0,0.00681746917546,0.0,0.0,0.0216530467281,0.0,0.0,0.0
1765472119.266066,17.353129386901855,0.0,0.0,-0.091266281553,0.0,0.0,0.000502407474116,0.0,0.0,0.0122344491559,0.0,0.0,0.0
1765472119.2862103,17.373273611068726,0.0,0.0,-0.0917744040683,0.0,0.0,-0.00162826923507,0.0,0.0,0.00891829914494,0.0,0.0,0.0
1765472119.306417,17.39348030090332,0.0,0.0,-0.0919656212358,0.0,0.0,-0.00218009194595,0.0,0.0,0.00789790476062,0.0,0.0,0.0
1765472119.326496,17.413559198379517,0.0,0.0,-0.0920358192182,0.0,0.0,-0.00214831637795,0.0,0.0,0.00772030871847,0.0,0.0,0.0
1765472119.3466396,17.43370294570923,0.0,0.0,-0.0920599353255,0.0,0.0,-0.00191261724872,0.0,0.0,0.00783223815505,0.0,0.0,0.0
1765472119.3668032,17.453866481781006,0.0,0.0,-0.0920666449968,0.0,0.0,-0.00161683265758,0.0,0.0,0.00802475251217,0.0,0.0,0.0
1765472119.38691,17.473973274230957,0.0,0.0,-0.092066893602,0.0,0.0,-0.00131495449247,0.0,0.0,0.0082202997553,0.0,0.0,0.0
1765472119.4079537,17.495017051696777,0.0,0.0,-0.08738630486,0.0,0.0,0.0203511469224,0.0,0.0,0.0382098595865,0.0,0.0,0.0
1765472119.4273086,17.514371871948242,0.0,0.0,-0.0856110182912,0.0,0.0,0.0273215304048,0.0,0.0,0.0468585555774,0.0,0.0,0.0
1765472119.4491827,17.536246061325073,0.0,0.0,-0.0849460125578,0.0,0.0,0.0287415866897,0.0,0.0,0.0475190418474,0.0,0.0,0.0
1765472119.4672172,17.554280519485474,0.0,0.0,-0.0847061916242,0.0,0.0,0.0281061068631,0.0,0.0,0.0452975648472,0.0,0.0,0.0
1765472119.4890668,17.576130151748657,0.0,0.0,-0.0846270748767,0.0,0.0,0.026743598673,0.0,0.0,0.0421200265479,0.0,0.0,0.0
1765472119.5080664,17.59512972831726,0.0,0.0,-0.084609872621,0.0,0.0,0.0251695630434,0.0,0.0,0.0387399634709,0.0,0.0,0.0
1765472119.5282354,17.615298748016357,0.0,0.0,-0.0846152406823,0.0,0.0,0.0235754131469,0.0,0.0,0.0354276913665,0.0,0.0,0.0
1765472119.5484154,17.635478734970093,0.0,0.0,-0.0913114612595,0.0,0.0,-0.00848056702614,0.0,0.0,-0.0102865200557,0.0,0.0,0.0
1765472119.568504,17.655567407608032,0.0,0.0,-0.0938591950665,0.0,0.0,-0.0195268565296,0.0,0.0,-0.0254069980081,0.0,0.0,0.0
1765472119.588621,17.675684213638306,0.0,0.0,-0.094820510522,0.0,0.0,-0.022607758602,0.0,0.0,-0.0289905572259,0.0,0.0,0.0
1765472119.6087425,17.69580578804016,0.0,0.0,-0.09517534303,0.0,0.0,-0.0227063956682,0.0,0.0,-0.0283138422203,0.0,0.0,0.0
1765472119.6288576,17.71592092514038,0.0,0.0,-0.095298958101,0.0,0.0,-0.0217278271971,0.0,0.0,-0.0261536492975,0.0,0.0,0.0
1765472119.6490314,17.73609471321106,0.0,0.0,-0.0953348774983,0.0,0.0,-0.0203963570188,0.0,0.0,-0.0235616389769,0.0,0.0,0.0
1765472119.669062,17.7561252117157,0.0,0.0,-0.0953378760986,0.0,0.0,-0.0189864052337,0.0,0.0,-0.0209328705434,0.0,0.0,0.0
1765472119.6892183,17.776281595230103,0.0,0.0,-0.0966654639699,0.0,0.0,-0.0237043207484,0.0,0.0,-0.0269252987037,0.0,0.0,0.0
1765472119.709407,17.796470403671265,0.0,0.0,-0.0971590297648,0.0,0.0,-0.0242943532899,0.0,0.0,-0.0269914103417,0.0,0.0,0.0
1765472119.7295046,17.81656789779663,0.0,0.0,-0.0973340606567,0.0,0.0,-0.0233786707258,0.0,0.0,-0.0249562311323,0.0,0.0,0.0
1765472119.749678,17.83674120903015,0.0,0.0,-0.0973883022839,0.0,0.0,-0.0219548006046,0.0,0.0,-0.0222689038249,0.0,0.0,0.0
1765472119.769837,17.856900215148926,0.0,0.0,-0.0973969483643,0.0,0.0,-0.0204022076805,0.0,0.0,-0.019477648331,0.0,0.0,0.0
1765472119.7899606,17.877023935317993,0.0,0.0,-0.0973888372382,0.0,0.0,-0.0188637487121,0.0,0.0,-0.016784871152,0.0,0.0,0.0
1765472119.8101375,17.8972008228302,0.0,0.0,-0.0973751574263,0.0,0.0,-0.0173885547008,0.0,0.0,-0.0142557470079,0.0,0.0,0.0
1765472119.8313234,17.918386697769165,0.0,0.0,-0.0933500664069,0.0,0.0,0.00231743396061,0.0,0.0,0.0136294001708,0.0,0.0,0.0
1765472119.850479,17.9375422000885,0.0,0.0,-0.0918154304058,0.0,0.0,0.0093770357637,0.0,0.0,0.0230924359672,0.0,0.0,0.0
1765472119.8712559,17.958319187164307,0.0,0.0,-0.0912336978055,0.0,0.0,0.0116149464022,0.0,0.0,0.0255649750306,0.0,0.0,0.0
1765472119.8906763,17.977739572525024,0.0,0.0,-0.0910162221024,0.0,0.0,0.0120303793648,0.0,0.0,0.0254255434707,0.0,0.0,0.0
1765472119.9108033,17.9978666305542,0.0,0.0,-0.0909380632138,0.0,0.0,0.0117696238664,0.0,0.0,0.0243477844133,0.0,0.0,0.0
1765472119.93176,18.018823385238647,0.0,0.0,-0.0909127609392,0.0,0.0,0.0112693006282,0.0,0.0,0.0229651484826,0.0,0.0,0.0
1765472119.951171,18.0382342338562,0.0,0.0,-0.0909076265236,0.0,0.0,0.0106967764798,0.0,0.0,0.0215210091262,0.0,0.0,0.0
1765472119.971313,18.05837631225586,0.0,0.0,-0.088236728313,0.0,0.0,0.0223227441078,0.0,0.0,0.0371326027517,0.0,0.0,0.0
1765472119.9915195,18.078582763671875,0.0,0.0,-0.0872287688392,0.0,0.0,0.0255855732944,0.0,0.0,0.0406402187469,0.0,0.0,0.0
1765472120.01164,18.098703384399414,0.0,0.0,-0.0868565092173,0.0,0.0,0.0257138160785,0.0,0.0,0.0396776951014,0.0,0.0,0.0
1765472120.0321898,18.119253158569336,0.0,0.0,-0.0867264467025,0.0,0.0,0.0247028628973,0.0,0.0,0.0371517810791,0.0,0.0,0.0
1765472120.051989,18.139052391052246,0.0,0.0,-0.0866887838628,0.0,0.0,0.0233168340965,0.0,0.0,0.0341748297308,0.0,0.0,0.0
1765472120.0721138,18.15917706489563,0.0,0.0,-0.0866856273912,0.0,0.0,0.0218440931413,0.0,0.0,0.0311606970575,0.0,0.0,0.0
1765472120.092965,18.180028200149536,0.0,0.0,-0.0866949999766,0.0,0.0,0.0203912875165,0.0,0.0,0.0282589077754,0.0,0.0,0.0
1765472120.1125336,18.199596881866455,0.0,0.0,-0.0867085765698,0.0,0.0,0.0189966917646,0.0,0.0,0.0255197279308,0.0,0.0,0.0
1765472120.1325836,18.21964693069458,0.0,0.0,-0.0860549471297,0.0,0.0,0.0207246899226,0.0,0.0,0.0272131412981,0.0,0.0,0.0
1765472120.1528246,18.239887952804565,0.0,0.0,-0.0858162015539,0.0,0.0,0.0204317068313,0.0,0.0,0.0260399900246,0.0,0.0,0.0
1765472120.1728718,18.25993514060974,0.0,0.0,-0.0857356159502,0.0,0.0,0.0194214108785,0.0,0.0,0.0238994864295,0.0,0.0,0.0
1765472120.19293,18.279993295669556,0.0,0.0,-0.0857148844529,0.0,0.0,0.0181895788846,0.0,0.0,0.0215101155396,0.0,0.0,0.0
1765472120.212971,18.300034284591675,0.0,0.0,-0.0857164089708,0.0,0.0,0.0169223401798,0.0,0.0,0.0191381697543,0.0,0.0,0.0
1765472120.2332897,18.320353031158447,0.0,0.0,-0.0857259681187,0.0,0.0,0.0156895273933,0.0,0.0,0.0168809544167,0.0,0.0,0.0
1765472120.2537692,18.340832471847534,0.0,0.0,-0.0857362819965,0.0,0.0,0.0144863329505,0.0,0.0,0.0147191169668,0.0,0.0,0.0
1765472120.273893,18.36095643043518,0.0,0.0,-0.0783958056828,0.0,0.0,0.0470356466439,0.0,0.0,0.0597189381038,0.0,0.0,0.0
1765472120.294224,18.381287336349487,0.0,0.0,-0.0756241626078,0.0,0.0,0.056511397214,0.0,0.0,0.0712631883322,0.0,0.0,0.0
1765472120.314096,18.401159286499023,0.0,0.0,-0.0745968300496,0.0,0.0,0.0573752901855,0.0,0.0,0.0704658710979,0.0,0.0,0.0
1765472120.3342154,18.421278715133667,0.0,0.0,-0.0742346513335,0.0,0.0,0.0551093720132,0.0,0.0,0.0653227902987,0.0,0.0,0.0
1765472120.3545635,18.44162678718567,0.0,0.0,-0.0741226855583,0.0,0.0,0.0517618155252,0.0,0.0,0.0588004494027,0.0,0.0,0.0
1765472120.3749332,18.46199655532837,0.0,0.0,-0.0741079446831,0.0,0.0,0.0481464631536,0.0,0.0,0.0520879342888,0.0,0.0,0.0
1765472120.3959522,18.483015537261963,0.0,0.0,-0.0741307889489,0.0,0.0,0.0446068050026,0.0,0.0,0.0456810452096,0.0,0.0,0.0
1765472120.415207,18.502270221710205,0.0,0.0,-0.0861939263635,0.0,0.0,-0.0136503236148,0.0,0.0,-0.0369195067289,0.0,0.0,0.0
1765472120.4359498,18.5230131149292,0.0,0.0,-0.0907871641839,0.0,0.0,-0.034058863679,0.0,0.0,-0.0643660138499,0.0,0.0,0.0
1765472120.4556623,18.542725563049316,0.0,0.0,-0.0925233288325,0.0,0.0,-0.0400842956781,0.0,0.0,-0.0709657806616,0.0,0.0,0.0
1765472120.4758089,18.562872171401978,0.0,0.0,-0.0931677227859,0.0,0.0,-0.040703399809,0.0,0.0,-0.0698339050306,0.0,0.0,0.0
1765472120.4960825,18.5831458568573,0.0,0.0,-0.0933958446768,0.0,0.0,-0.0393367078935,0.0,0.0,-0.0659587196874,0.0,0.0,0.0
1765472120.5161986,18.603261947631836,0.0,0.0,-0.093464429857,0.0,0.0,-0.0373017270888,0.0,0.0,-0.0612650017032,0.0,0.0,0.0
1765472120.5362897,18.623353004455566,0.0,0.0,-0.093473621598,0.0,0.0,-0.0350943721741,0.0,0.0,-0.0564635173732,0.0,0.0,0.0
1765472120.5564723,18.643535614013672,0.0,0.0,-0.0921245931364,0.0,0.0,-0.0267996053662,0.0,0.0,-0.0433035031326,0.0,0.0,0.0
1765472120.5766287,18.663691997528076,0.0,0.0,-0.0915981212367,0.0,0.0,-0.0227670630065,0.0,0.0,-0.0364608785998,0.0,0.0,0.0
1765472120.5967102,18.683773517608643,0.0,0.0,-0.0913869891173,0.0,0.0,-0.0204123272148,0.0,0.0,-0.032151679447,0.0,0.0,0.0
1765472120.6172433,18.704306602478027,0.0,0.0,-0.0912971686943,0.0,0.0,-0.0187422372687,0.0,0.0,-0.0289180317604,0.0,0.0,0.0
1765472120.6369655,18.724028825759888,0.0,0.0,-0.091254068269,0.0,0.0,-0.0173778665671,0.0,0.0,-0.0262023928156,0.0,0.0,0.0
1765472120.6573548,18.744418144226074,0.0,0.0,-0.0912309656925,0.0,0.0,-0.0161473514321,0.0,0.0,-0.023738437541,0.0,0.0,0.0
1765472120.677472,18.764535427093506,0.0,0.0,-0.0912125466013,0.0,0.0,-0.0150318545577,0.0,0.0,-0.0215150612748,0.0,0.0,0.0
1765472120.6981373,18.785200595855713,0.0,0.0,-0.0911983456337,0.0,0.0,-0.0139976390536,0.0,0.0,-0.0194671002279,0.0,0.0,0.0
1765472120.7177706,18.80483388900757,0.0,0.0,-0.0911860197256,0.0,0.0,-0.0130295266271,0.0,0.0,-0.0175693245134,0.0,0.0,0.0
1765472120.737889,18.824952363967896,0.0,0.0,-0.0911748702277,0.0,0.0,-0.0121193022807,0.0,0.0,-0.0158056750591,0.0,0.0,0.0
1765472120.758201,18.845264196395874,0.0,0.0,-0.0911650510493,0.0,0.0,-0.0112542435307,0.0,0.0,-0.0141513635621,0.0,0.0,0.0
1765472120.7788107,18.86587405204773,0.0,0.0,-0.091154917364,0.0,0.0,-0.010445211372,0.0,0.0,-0.012625036616,0.0,0.0,0.0
1765472120.798505,18.885568380355835,0.0,0.0,-0.0911457247293,0.0,0.0,-0.00968541636173,0.0,0.0,-0.011210023716,0.0,0.0,0.0
1765472120.8187938,18.90585708618164,0.0,0.0,-0.0911371093739,0.0,0.0,-0.00897151169821,0.0,0.0,-0.00989901550793,0.0,0.0,0.0
1765472120.8388743,18.92593765258789,0.0,0.0,-0.0844464676148,0.0,0.0,0.022174356609,0.0,0.0,0.0338273380128,0.0,0.0,0.0
1765472120.8612115,18.948274850845337,0.0,0.0,-0.0818934122646,0.0,0.0,0.0325801844329,0.0,0.0,0.0473500309368,0.0,0.0,0.0
1765472120.8801951,18.96725845336914,0.0,0.0,-0.0809476109307,0.0,0.0,0.0348152518845,0.0,0.0,0.0491367873062,0.0,0.0,0.0
1765472120.9003994,18.987462759017944,0.0,0.0,-0.08060471001,0.0,0.0,0.0341259744932,0.0,0.0,0.0467925264312,0.0,0.0,0.0
1765472120.9204967,19.00756001472473,0.0,0.0,-0.0804904977485,0.0,0.0,0.0324130233589,0.0,0.0,0.0430832309591,0.0,0.0,0.0
1765472120.940633,19.02769637107849,0.0,0.0,-0.0804633408457,0.0,0.0,0.0303940724125,0.0,0.0,0.0390528124115,0.0,0.0,0.0
1765472120.9609995,19.048062801361084,0.0,0.0,-0.0804670009384,0.0,0.0,0.0283167107142,0.0,0.0,0.0350467111646,0.0,0.0,0.0
1765472120.9817576,19.06882095336914,0.0,0.0,-0.0851656790845,0.0,0.0,0.00464734271374,0.0,0.0,0.00099428926957,0.0,0.0,0.0
1765472121.001535,19.088598251342773,0.0,0.0,-0.0869593196724,0.0,0.0,-0.0039506264666,0.0,0.0,-0.0110394271846,0.0,0.0,0.0
1765472121.0216787,19.108741998672485,0.0,0.0,-0.0876411978456,0.0,0.0,-0.00690531807679,0.0,0.0,-0.0148546629777,0.0,0.0,0.0
1765472121.0417705,19.128833770751953,0.0,0.0,-0.0878984082294,0.0,0.0,-0.00772820940317,0.0,0.0,-0.0155857711678,0.0,0.0,0.0
1765472121.0619571,19.149020433425903,0.0,0.0,-0.0879933798018,0.0,0.0,-0.00775145406912,0.0,0.0,-0.015179854538,0.0,0.0,0.0
1765472121.0826728,19.16973614692688,0.0,0.0,-0.0880264970034,0.0,0.0,-0.0074821989264,0.0,0.0,-0.0143766512204,0.0,0.0,0.0
1765472121.102389,19.189452409744263,0.0,0.0,-0.0880359499354,0.0,0.0,-0.00711543826557,0.0,0.0,-0.0134608566684,0.0,0.0,0.0
1765472121.1224427,19.209506034851074,0.0,0.0,-0.0880366114546,0.0,0.0,-0.00672445254004,0.0,0.0,-0.0125370895143,0.0,0.0,0.0
1765472121.1426327,19.229696035385132,0.0,0.0,-0.0927117116756,0.0,0.0,-0.0276526451974,0.0,0.0,-0.0413798351914,0.0,0.0,0.0
1765472121.1628647,19.24992799758911,0.0,0.0,-0.0944806583124,0.0,0.0,-0.0339723837612,0.0,0.0,-0.0490313398956,0.0,0.0,0.0
1765472121.1845667,19.27163004875183,0.0,0.0,-0.0951392704341,0.0,0.0,-0.0347888036723,0.0,0.0,-0.0487873496533,0.0,0.0,0.0
1765472121.2031295,19.29019284248352,0.0,0.0,-0.0953725881404,0.0,0.0,-0.0335896969095,0.0,0.0,-0.0457428852395,0.0,0.0,0.0
1765472121.224288,19.31135129928589,0.0,0.0,-0.0954450568422,0.0,0.0,-0.031705181233,0.0,0.0,-0.0418271719621,0.0,0.0,0.0
1765472121.2436092,19.3306725025177,0.0,0.0,-0.0954563404381,0.0,0.0,-0.0296462767344,0.0,0.0,-0.0377809444754,0.0,0.0,0.0
1765472121.2638068,19.35087013244629,0.0,0.0,-0.0954458357691,0.0,0.0,-0.0275954823108,0.0,0.0,-0.0338585287535,0.0,0.0,0.0
1765472121.2839022,19.370965480804443,0.0,0.0,-0.0874079790806,0.0,0.0,0.0109463056154,0.0,0.0,0.0208305664415,0.0,0.0,0.0
1765472121.3041902,19.39125347137451,0.0,0.0,-0.084348972838,0.0,0.0,0.0242945625614,0.0,0.0,0.0388555396044,0.0,0.0,0.0
1765472121.3242567,19.411319971084595,0.0,0.0,-0.0831943086315,0.0,0.0,0.0280758264164,0.0,0.0,0.043035997996,0.0,0.0,0.0
1765472121.3451617,19.432224988937378,0.0,0.0,-0.0827670714397,0.0,0.0,0.0282685758041,0.0,0.0,0.042094246962,0.0,0.0,0.0
1765472121.3648536,19.451916933059692,0.0,0.0,-0.0826159901902,0.0,0.0,0.0271360937476,0.0,0.0,0.0393196963685,0.0,0.0,0.0
1765472121.3849406,19.472003936767578,0.0,0.0,-0.0825738396755,0.0,0.0,0.0255867494518,0.0,0.0,0.0360549834543,0.0,0.0,0.0
1765472121.4050276,19.492090940475464,0.0,0.0,-0.0825701935035,0.0,0.0,0.0239448928104,0.0,0.0,0.0327528334499,0.0,0.0,0.0
1765472121.4250538,19.51211714744568,0.0,0.0,-0.0839171622764,0.0,0.0,0.016234002569,0.0,0.0,0.0210813167892,0.0,0.0,0.0
1765472121.4451938,19.532257080078125,0.0,0.0,-0.0844386550179,0.0,0.0,0.0127689770314,0.0,0.0,0.0156576362595,0.0,0.0,0.0
1765472121.46858,19.555643320083618,0.0,0.0,-0.084643388315,0.0,0.0,0.0109429746273,0.0,0.0,0.0126673221539,0.0,0.0,0.0
1765472121.4858198,19.572883129119873,0.0,0.0,-0.084728012306,0.0,0.0,0.00979348430327,0.0,0.0,0.0107085963024,0.0,0.0,0.0
1765472121.505936,19.59299921989441,0.0,0.0,-0.0847654451757,0.0,0.0,0.00892858235142,0.0,0.0,0.00920160356112,0.0,0.0,0.0
1765472121.5260618,19.61312508583069,0.0,0.0,-0.0847845567666,0.0,0.0,0.00819799175185,0.0,0.0,0.00792426346536,0.0,0.0,0.0
1765472121.5461621,19.633225440979004,0.0,0.0,-0.0847963896121,0.0,0.0,0.00754350991888,0.0,0.0,0.00678906650348,0.0,0.0,0.0
1765472121.566682,19.653745412826538,0.0,0.0,-0.0821321525605,0.0,0.0,0.0191288494857,0.0,0.0,0.0227528308893,0.0,0.0,0.0
1765472121.5864499,19.673513174057007,0.0,0.0,-0.0811265617108,0.0,0.0,0.0223949313379,0.0,0.0,0.0266676525666,0.0,0.0,0.0
1765472121.606549,19.693612337112427,0.0,0.0,-0.0807549607089,0.0,0.0,0.0225449708165,0.0,0.0,0.0261279763709,0.0,0.0,0.0
1765472121.6268253,19.71388864517212,0.0,0.0,-0.0806243716441,0.0,0.0,0.021558398774,0.0,0.0,0.0240147165465,0.0,0.0,0.0
1765472121.647337,19.734400272369385,0.0,0.0,-0.0805867929523,0.0,0.0,0.0202060068536,0.0,0.0,0.0214538084124,0.0,0.0,0.0
1765472121.6670928,19.7541561126709,0.0,0.0,-0.0805835130609,0.0,0.0,0.0187758096907,0.0,0.0,0.0188570175315,0.0,0.0,0.0
1765472121.6872666,19.774329900741577,0.0,0.0,-0.0805925440662,0.0,0.0,0.0173717860924,0.0,0.0,0.0163697296398,0.0,0.0,0.0
1765472121.7076278,19.79469108581543,0.0,0.0,-0.0859518224058,0.0,0.0,-0.00835742390132,0.0,0.0,-0.0199647781442,0.0,0.0,0.0
1765472121.727715,19.814778327941895,0.0,0.0,-0.087991621444,0.0,0.0,-0.0172789604553,0.0,0.0,-0.0318432730773,0.0,0.0,0.0
1765472121.747755,19.834818363189697,0.0,0.0,-0.0887617415303,0.0,0.0,-0.0198166707524,0.0,0.0,-0.034487359688,0.0,0.0,0.0
1765472121.7679439,19.85500717163086,0.0,0.0,-0.0890466318834,0.0,0.0,-0.0199576823381,0.0,0.0,-0.0337152249341,0.0,0.0,0.0
1765472121.7881234,19.875186681747437,0.0,0.0,-0.0891463310024,0.0,0.0,-0.0192251335846,0.0,0.0,-0.0317466378678,0.0,0.0,0.0
1765472121.809053,19.896116256713867,0.0,0.0,-0.0891757000239,0.0,0.0,-0.0181996327784,0.0,0.0,-0.0294243561148,0.0,0.0,0.0
1765472121.828538,19.91560125350952,0.0,0.0,-0.0891784029247,0.0,0.0,-0.0171044665365,0.0,0.0,-0.0270712720409,0.0,0.0,0.0
1765472121.8521793,19.939242601394653,0.0,0.0,-0.0891717573095,0.0,0.0,-0.0160181505354,0.0,0.0,-0.0247949155607,0.0,0.0,0.0
1765472121.8687856,19.955848932266235,0.0,0.0,-0.0918348752155,0.0,0.0,-0.0271810785277,0.0,0.0,-0.0396624783958,0.0,0.0,0.0
1765472121.8889494,19.976012706756592,0.0,0.0,-0.0928367961756,0.0,0.0,-0.030017054717,0.0,0.0,-0.0425022323731,0.0,0.0,0.0
1765472121.9090161,19.996079444885254,0.0,0.0,-0.0932038981267,0.0,0.0,-0.0297501881903,0.0,0.0,-0.0409366669401,0.0,0.0,0.0
1765472121.929049,20.016112327575684,0.0,0.0,-0.09332920537,0.0,0.0,-0.0283737848806,0.0,0.0,-0.0378677591523,0.0,0.0,0.0
1765472121.9491653,20.0362286567688,0.0,0.0,-0.0933628523073,0.0,0.0,-0.0266456874145,0.0,0.0,-0.0343943969368,0.0,0.0,0.0
1765472121.9693313,20.056394577026367,0.0,0.0,-0.0933620724786,0.0,0.0,-0.0248548667526,0.0,0.0,-0.0309319221031,0.0,0.0,0.0
1765472121.9894757,20.076539039611816,0.0,0.0,-0.0933491236802,0.0,0.0,-0.0231055285295,0.0,0.0,-0.0276241678988,0.0,0.0,0.0
1765472122.0096152,20.096678495407104,0.0,0.0,-0.0946688861182,0.0,0.0,-0.0275364727093,0.0,0.0,-0.0330262129257,0.0,0.0,0.0
1765472122.0297523,20.1168155670166,0.0,0.0,-0.0951575859733,0.0,0.0,-0.0278694136906,0.0,0.0,-0.0325626214266,0.0,0.0,0.0
1765472122.0498703,20.13693356513977,0.0,0.0,-0.0953292332477,0.0,0.0,-0.0267153385918,0.0,0.0,-0.0300386858321,0.0,0.0,0.0
1765472122.0709124,20.157975673675537,0.0,0.0,-0.0953804639435,0.0,0.0,-0.0250695239012,0.0,0.0,-0.0269000639445,0.0,0.0,0.0
1765472122.0934792,20.180542469024658,0.0,0.0,-0.0953873837802,0.0,0.0,-0.023294792374,0.0,0.0,-0.023665251558,0.0,0.0,0.0
1765472122.1112595,20.198322772979736,0.0,0.0,-0.0953765547302,0.0,0.0,-0.0215496422352,0.0,0.0,-0.0205651665563,0.0,0.0,0.0
1765472122.1327915,20.219854831695557,0.0,0.0,-0.0953607642243,0.0,0.0,-0.0198765329961,0.0,0.0,-0.0176508485286,0.0,0.0,0.0
1765472122.1561048,20.243168115615845,0.0,0.0,-0.0926683033781,0.0,0.0,-0.00595091102953,0.0,0.0,0.00227835655687,0.0,0.0,0.0
1765472122.1710777,20.258141040802002,0.0,0.0,-0.0916372952839,0.0,0.0,-0.000634437930751,0.0,0.0,0.00963227829797,0.0,0.0,0.0
1765472122.1925013,20.27956461906433,0.0,0.0,-0.0912427308387,0.0,0.0,0.0014113112712,0.0,0.0,0.0122160118781,0.0,0.0,0.0
1765472122.2144175,20.301480770111084,0.0,0.0,-0.0910914651937,0.0,0.0,0.00220860622056,0.0,0.0,0.0129829582177,0.0,0.0,0.0
1765472122.2308466,20.317909955978394,0.0,0.0,-0.0910336073282,0.0,0.0,0.0025188939436,0.0,0.0,0.0130521914911,0.0,0.0,0.0
1765472122.251006,20.338069200515747,0.0,0.0,-0.0910113804043,0.0,0.0,0.00264007769931,0.0,0.0,0.0128555901413,0.0,0.0,0.0
1765472122.2712922,20.35835552215576,0.0,0.0,-0.0910028216972,0.0,0.0,0.00268415057094,0.0,0.0,0.0125565378357,0.0,0.0,0.0
1765472122.2926118,20.379675149917603,0.0,0.0,-0.0809767558175,0.0,0.0,0.0483628200119,0.0,0.0,0.0759377591959,0.0,0.0,0.0
1765472122.3126817,20.399744987487793,0.0,0.0,-0.0771771509888,0.0,0.0,0.0627061359753,0.0,0.0,0.0938145041739,0.0,0.0,0.0
1765472122.332753,20.419816255569458,0.0,0.0,-0.075758535075,0.0,0.0,0.0652188635049,0.0,0.0,0.0946838279426,0.0,0.0,0.0
1765472122.3529205,20.43998384475708,0.0,0.0,-0.0752490486693,0.0,0.0,0.0633669164304,0.0,0.0,0.089439617797,0.0,0.0,0.0
1765472122.3729866,20.460049867630005,0.0,0.0,-0.075085943481,0.0,0.0,0.0600055048948,0.0,0.0,0.0822388235734,0.0,0.0,0.0
1765472122.3930907,20.480154037475586,0.0,0.0,-0.0750531650031,0.0,0.0,0.056215507164,0.0,0.0,0.0746415018193,0.0,0.0,0.0
1765472122.4131918,20.50025510787964,0.0,0.0,-0.0750689258936,0.0,0.0,0.0524077340784,0.0,0.0,0.0672338127465,0.0,0.0,0.0
1765472122.433343,20.520406246185303,0.0,0.0,-0.0851261489682,0.0,0.0,0.00296283701897,0.0,0.0,-0.00361055360129,0.0,0.0,0.0
