timestamp_abs,timestamp_rel,x,y,z,vx,vy,vz,ax,ay,az,roll,pitch,yaw
1765470634.8077998,0.9584686756134033,8.75103415808e-13,7.61803466722e-13,-0.0283544236702,1.24422025673e-07,1.08313061955e-07,-5.86360998224e-07,0.008845273574,0.00770007287259,-0.013330111567,0.036597942003439105,-0.06758231077483026,1.3624156894049926
1765470634.8123488,0.9630177021026611,2.13975431223e-06,1.86271956381e-06,-0.0285012722907,0.000212710319583,0.000185170639193,-0.000595798623883,0.0106768190742,0.0092944875284,-0.0160908497744,0.036597942003439105,-0.06758231077483026,1.3624156894049926
1765470634.8335292,0.9841980934143066,9.16352918412e-06,7.97712381618e-06,-0.0285630984057,0.000456650087129,0.000397527438666,-0.00118480670919,0.0114863675291,0.00999922345821,-0.0173114151329,0.036597942003439105,-0.06758231077483026,1.3624156894049926
1765470634.8538601,1.0045289993286133,2.13623897011e-05,1.85965935429e-05,-0.0286070705238,0.00071098361278,0.000618932312701,-0.00168193275772,0.0119508958961,0.0104036091731,-0.0180116436474,0.036597942003439105,-0.06758231077483026,1.3624156894049926
1765470634.8743207,1.0249896049499512,3.88091460925e-05,3.3784512207e-05,-0.0286429199846,0.000970121421853,0.000844519457882,-0.00205035778709,0.0122556241696,0.0106688841691,-0.0184704907134,0.036597942003439105,-0.06758231077483026,1.3624156894049926
1765470634.8939736,1.044642448425293,6.15446822039e-05,5.35764704082e-05,-0.0310313975717,0.0012320555119,0.00107254084855,-0.022701535337,0.0124718975141,0.0108571565271,-0.0188978387693,0.036597942003439105,-0.06758231077483026,1.3624156894049926
1765470634.9136791,1.0643479824066162,8.95518994104e-05,7.79575832867e-05,-0.03290742672,0.00149544142783,0.00130182609669,-0.0348815069579,0.0126331038442,0.0109974914166,-0.019185824842,0.036597942003439105,-0.06758231077483026,1.3624156894049926
1765470634.9341953,1.0848641395568848,0.000122837185549,0.000106933411644,-0.0343218364642,0.00175978650414,0.00153194632238,-0.0408047455963,0.0127571238187,0.0111054544811,-0.0193785609313,0.036597942003439105,-0.06758231077483026,1.3624156894049926
1765470634.954596,1.1052649021148682,0.000161409182872,0.000140511478817,-0.0353535523305,0.0020248121721,0.00176265902327,-0.0426908820415,0.0128545337193,0.0111902526873,-0.0195067292645,0.036597942003439105,-0.06758231077483026,1.3624156894049926
1765470634.974931,1.1255998611450195,0.0001809490575,0.000183838225812,-0.0361008217709,0.00193520268397,0.00205329106812,-0.0418576692706,0.00861892557196,0.0118623599611,-0.0144513099085,0.03715737227992387,-0.06744386384884897,1.363119429723046
1765470634.9955933,1.1462621688842773,0.000199509436878,0.000231182796778,-0.0365979699622,0.00181616202318,0.00233897900999,-0.0397861640504,0.00522484045877,0.0124009341666,-0.0103877672501,0.03715737227992387,-0.06744386384884897,1.363119429723046
1765470635.0155191,1.1661880016326904,0.000218047430124,0.000283849816891,-0.036936143292,0.00168179464448,0.00262681826798,-0.0371628464638,0.00248648061867,0.012835457735,-0.00710023049693,0.03715737227992387,-0.06744386384884897,1.363119429723046
1765470635.0357704,1.1864392757415771,0.000236133013821,0.000341958364073,-0.036033911013,0.00153570615335,0.00291652058906,-0.0283638875137,0.000266677634197,0.0131876965825,-0.00435212532435,0.03715737227992387,-0.06744386384884897,1.363119429723046
1765470635.0557096,1.20637845993042,0.000253317917637,0.0004055789436,-0.0353011194346,0.00138041869594,0.00320768260422,-0.0218395629383,-0.0015384626699,0.0134741366607,-0.00213333995847,0.03715737227992387,-0.06744386384884897,1.363119429723046
1765470635.0756676,1.2263364791870117,0.000269189804396,0.000474784029565,-0.0347035881336,0.00121783367969,0.00350002783194,-0.0169395674688,-0.00300952588142,0.013707565309,-0.000338428256078,0.03715737227992387,-0.06744386384884897,1.363119429723046
1765470635.0964112,1.2470800876617432,0.000283393643637,0.000549711734751,-0.0342139465302,0.00104933476957,0.00379360482583,-0.0132105447948,-0.00421022185396,0.0138980920217,0.00111549219634,0.03715737227992387,-0.06744386384884897,1.363119429723046
1765470635.1165235,1.2671923637390137,0.000295541990574,0.000630239733051,-0.033810096226,0.000876241131374,0.00408757340416,-0.0103371473953,-0.00519089226894,0.0140537050285,0.00229351065138,0.03715737227992387,-0.06744386384884897,1.363119429723046
1765470635.136583,1.2872519493103027,0.000305369451981,0.000716485077512,-0.033475283849,0.000699403026207,0.00438207937832,-0.00809510524711,-0.00599237058885,0.0141808837924,0.00324815225136,0.03715737227992387,-0.06744386384884897,1.363119429723046
1765470635.1564915,1.3071603775024414,0.000312631198891,0.000808545599172,-0.0331960917961,0.000519462155535,0.00467719440842,-0.00632412311065,-0.00664774888504,0.014284879371,0.00402175604307,0.03715737227992387,-0.06744386384884897,1.363119429723046
1765470635.176394,1.3270628452301025,0.000312097077336,0.000923335168319,-0.0340975032214,0.000284792330114,0.00514910340923,-0.00897037457175,-0.00776134973326,0.0163200422995,0.00489532868619,0.03764679887044239,-0.0672261629133026,1.3637021293695553
1765470635.197072,1.347740888595581,0.000308285744642,0.00104488047298,-0.0348277379706,4.60793395685e-05,0.00562836382121,-0.0107217175851,-0.00867226604032,0.0179847887857,0.00563130380474,0.03764679887044239,-0.0672261629133026,1.3637021293695553
1765470635.2171016,1.3677704334259033,0.000300879558376,0.00117392166879,-0.0354194138363,-0.000196118397028,0.00611401519132,-0.0118177009698,-0.00941758670123,0.0193469006963,0.00625150775764,0.03764679887044239,-0.0672261629133026,1.3637021293695553
1765470635.2373557,1.3880245685577393,0.000289599798258,0.00131095013034,-0.0358981645911,-0.000441159973225,0.00660487910108,-0.0124319395262,-0.0100274987919,0.0204615464679,0.00677417843204,0.03764679887044239,-0.0672261629133026,1.3637021293695553
1765470635.2571084,1.4077773094177246,0.00027422420892,0.00145627964912,-0.0362842985177,-0.000688378377226,0.00709970243511,-0.012691545871,-0.0105265841876,0.0213736507438,0.00721454441762,0.03764679887044239,-0.0672261629133026,1.3637021293695553
1765470635.2775962,1.42826509475708,0.000254553765953,0.00161037102511,-0.0365944967213,-0.000937526464649,0.00759806916889,-0.0126899968986,-0.0109350269282,0.0221201008974,0.00758546797839,0.03764679887044239,-0.0672261629133026,1.3637021293695553
1765470635.2977288,1.4483976364135742,0.000230442701833,0.00177340263509,-0.0368419286565,-0.0011881057437,0.00809903620287,-0.0124969878311,-0.0112692730778,0.0227309529579,0.0078976989216,0.03764679887044239,-0.0672261629133026,1.3637021293695553
1765470635.317797,1.468465805053711,0.000201750966278,0.00194569071695,-0.0342092234899,-0.00143995138633,0.00860232420123,-0.00404942148006,-0.011542815977,0.0232308667004,0.00857572578853,0.03764679887044239,-0.0672261629133026,1.3637021293695553
1765470635.3380783,1.4887471199035645,0.00016837306925,0.0021274112537,-0.0319857147362,-0.00169280699696,0.00910745847738,0.00259937625827,-0.0117666824469,0.023639994209,0.00905501856979,0.03764679887044239,-0.0672261629133026,1.3637021293695553
1765470635.3584414,1.5091102123260498,0.00013016734463,0.00231898635696,-0.0301066697202,-0.00194680913032,0.00961474613267,0.00780949394707,-0.0119499315465,0.0239748913804,0.00938206543414,0.03764679887044239,-0.0672261629133026,1.3637021293695553
1765470635.3770247,1.527693510055542,0.000134568231552,0.00247284711676,-0.028530535248,-0.00172774132919,0.00965274861265,0.011613718443,-0.00688637999666,0.0190773419027,0.00640485485184,0.03784691045922662,-0.06718647765187122,1.3639707091654898
1765470635.3984075,1.5490763187408447,0.00013603439183,0.00263490515272,-0.0272017218626,-0.00149041471805,0.0096735882178,0.0144723090516,-0.0027417156413,0.0150685550761,0.00391977574327,0.03784691045922662,-0.06718647765187122,1.3639707091654898
1765470635.4182122,1.5688810348510742,0.000136346455135,0.00280296067636,-0.0260841799777,-0.0012377670991,0.00967936338351,0.016566348833,0.000650046495842,0.0117879875298,0.00184488915663,0.03784691045922662,-0.06718647765187122,1.3639707091654898
1765470635.4386754,1.5893442630767822,0.000136780365912,0.00297653507028,-0.0251452810172,-0.000972525520371,0.00967380709465,0.0180425192714,0.00342715136857,0.00910192649431,0.000110881834301,0.03784691045922662,-0.06718647765187122,1.3639707091654898
1765470635.4585254,1.609194278717041,0.000138616723633,0.00315323529843,-0.0247431671976,-0.000697185478344,0.00965766634353,0.0180379446085,0.00569929259685,0.00690427451499,-0.00140239615283,0.03784691045922662,-0.06718647765187122,1.3639707091654898
1765470635.4790058,1.6296746730804443,0.000142705815787,0.00333278392419,-0.024415412139,-0.000413556751504,0.00963349087929,0.0178328943157,0.00755844234286,0.00510607461952,-0.00265346414758,0.03784691045922662,-0.06718647765187122,1.3639707091654898
1765470635.499145,1.6498138904571533,0.000149809913683,0.00351441093784,-0.0241510114553,-0.000123180921968,0.00960273029994,0.0174707276502,0.00907971780952,0.00363467222658,-0.00368766447006,0.03784691045922662,-0.06718647765187122,1.3639707091654898
1765470635.5219817,1.6726505756378174,0.000161032272033,0.00372501216169,-0.0239031864811,0.000201114180857,0.00957471362047,0.0169443636201,0.0103507726559,0.00240528729039,-0.00456262563206,0.03784691045922662,-0.06718647765187122,1.3639707091654898
1765470635.5426,1.6932687759399414,0.000176653344319,0.00390939053059,-0.0237486115863,0.000503533765907,0.00953254983608,0.0163431589109,0.0113791574083,0.00141061681894,-0.00527684071642,0.03784691045922662,-0.06718647765187122,1.3639707091654898
1765470635.5625215,1.7131903171539307,0.000196806019198,0.00409423971689,-0.0236310549279,0.000808994786977,0.00948721045546,0.0156794993685,0.0122142316095,0.000602919459181,-0.00586161254609,0.03784691045922662,-0.06718647765187122,1.3639707091654898
1765470635.5821662,1.732835054397583,0.000202107957215,0.00430209905356,-0.0235344178656,0.000921721692794,0.00966473191918,0.0151949239793,0.0107564628872,0.00241285484957,-0.00354467078126,0.03775998737795996,-0.06722156063804381,1.3639719075879804
1765470635.6051998,1.755868673324585,0.000212388384354,0.00451576364968,-0.0264676002543,0.00103467762888,0.00984989373307,0.00734110740042,0.00956323342484,0.00389434378508,-0.00219997740888,0.03775998737795996,-0.06722156063804381,1.3639719075879804
1765470635.623188,1.7738568782806396,0.000226189165164,0.00472626378398,-0.0289845964608,0.00113856085616,0.0100387374253,0.000941278437025,0.00859079466675,0.00510170356464,-0.00100100993334,0.03775998737795996,-0.06722156063804381,1.3639719075879804
1765470635.6436644,1.7943332195281982,0.000243527672532,0.00493866546329,-0.0311385664345,0.00123912921463,0.010231546416,-0.00423819595175,0.00779725545297,0.00608694538295,6.53177696793e-05,0.03775998737795996,-0.06722156063804381,1.3639719075879804
1765470635.6635027,1.814171552658081,0.000264067405117,0.00515340044721,-0.0329801450167,0.00133696683457,0.0104276255357,-0.00838971769386,0.00714911775679,0.00689165969474,0.00101136422034,0.03775998737795996,-0.06722156063804381,1.3639719075879804
1765470635.6836908,1.8343596458435059,0.00028754695131,0.00537090729248,-0.0345523952841,0.00143261031678,0.0106264626854,-0.0116744460391,0.00661937418212,0.00754937832248,0.0018487089426,0.03775998737795996,-0.06722156063804381,1.3639719075879804
1765470635.7040615,1.8547303676605225,0.00031374766092,0.00559148681519,-0.0358920122906,0.00152645200422,0.0108276045744,-0.0142279887078,0.00618619255345,0.00808720764215,0.00258807943977,0.03775998737795996,-0.06722156063804381,1.3639719075879804
1765470635.7281175,1.878786325454712,0.000342517386488,0.0058155589753,-0.0370307390581,0.00161890954039,0.0110308070977,-0.0161652260673,0.00583181604958,0.00852719415445,0.00323943038659,0.03775998737795996,-0.06722156063804381,1.3639719075879804
1765470635.7464657,1.89713454246521,0.000373686916106,0.00604314434797,-0.0379953744694,0.00171014227846,0.0112356242886,-0.0175835964913,0.00554186701541,0.00888718885752,0.00381180465662,0.03775998737795996,-0.06722156063804381,1.3639719075879804
1765470635.7643995,1.9150683879852295,0.000407071186043,0.0062739827503,-0.0373333902442,0.00180017427238,0.0114414548612,-0.0150326472082,0.00530467525321,0.00918168122668,0.00458834371591,0.03775998737795996,-0.06722156063804381,1.3639719075879804
1765470635.7845743,1.9352431297302246,0.000439602378502,0.00648798898987,-0.0367503217236,0.00185952660027,0.0114451724443,-0.0127990924867,0.00478264707194,0.00719027398973,0.00508362406008,0.037323074995186445,-0.06730639896351964,1.3637774968284047
1765470635.8050184,1.9556872844696045,0.000474110420448,0.00670507170187,-0.0362362559243,0.00191703602025,0.0114418018113,-0.0108365407092,0.00435547578124,0.00556072211832,0.005467918713,0.037323074995186445,-0.06730639896351964,1.3637774968284047
1765470635.8251796,1.9758484363555908,0.000510450269782,0.00692473833693,-0.035782972532,0.00197309827995,0.0114326707872,-0.00911189784151,0.00400585542278,0.00422700770022,0.00576394299118,0.037323074995186445,-0.06730639896351964,1.3637774968284047
1765470635.8450294,1.9956982135772705,0.000548384306784,0.00714589494448,-0.0353830127803,0.00202779241906,0.0114186000936,-0.00759741088876,0.00371977805482,0.00313569393341,0.00598979073756,0.037323074995186445,-0.06730639896351964,1.3637774968284047
1765470635.8652449,2.015913724899292,0.000587825581943,0.00736828777376,-0.035030284737,0.00208142696963,0.0114005716721,-0.00626789819628,0.0034856936389,0.00224272030354,0.00616013948966,0.037323074995186445,-0.06730639896351964,1.3637774968284047
1765470635.8853908,2.036059617996216,0.000628684826289,0.00759159604896,-0.0347192586567,0.00213420669717,0.0113793165762,-0.0051012077565,0.00329414330592,0.00151200358551,0.00628678672669,0.037323074995186445,-0.06730639896351964,1.3637774968284047
1765470635.9055243,2.0561931133270264,0.000670897329062,0.00781559655121,-0.0304044085402,0.00218630751831,0.0113554268174,0.0055509926998,0.00313738419974,0.00091400671541,0.00713739676771,0.037323074995186445,-0.06730639896351964,1.3637774968284047
1765470635.925546,2.0762147903442383,0.000714395774791,0.00804002645264,-0.026689769564,0.00223784883216,0.0113293710512,0.0142638628993,0.00300909137245,0.000424601595375,0.00768116155811,0.037323074995186445,-0.06730639896351964,1.3637774968284047
1765470635.9471295,2.0977983474731445,0.000759143604484,0.0082647627592,-0.0234986022083,0.00228895329974,0.0113015381321,0.0213126631315,0.00290408731748,2.40373299113e-05,0.00799529440825,0.037323074995186445,-0.06730639896351964,1.3637774968284047
1765470635.9660904,2.1167593002319336,0.000805354350266,0.008490869551,-0.0207599595232,0.00234001361536,0.0112722190053,0.0269406459131,0.00281807215057,-0.000304089066341,0.00814056060121,0.037323074995186445,-0.06730639896351964,1.3637774968284047
1765470635.9862452,2.136914014816284,0.000852240064605,0.00875254549177,-0.0184148689356,0.00238816671896,0.0116068616787,0.0315143006095,0.0027225636668,0.00344702914119,0.010242802998,0.03708551686476217,-0.06735279622313586,1.3634728311996995
1765470636.0061655,2.156834363937378,0.000900189775563,0.00901524141346,-0.0164173335912,0.00243591954398,0.0119550938092,0.0350560085369,0.00264443217397,0.0065156619343,0.0118804126146,0.03708551686476217,-0.06735279622313586,1.3634728311996995
1765470636.0260572,2.1767261028289795,0.000949233297643,0.00928053842749,-0.0147207229401,0.00248340697764,0.0123145124058,0.0377220537776,0.00258050385111,0.00902646187995,0.0131505959407,0.03708551686476217,-0.06735279622313586,1.3634728311996995
1765470636.0463097,2.1969785690307617,0.000999275623611,0.00954914122859,-0.0164056451695,0.00253060943706,0.0126828602764,0.0322285203544,0.00252820123835,0.0110806593217,0.0135437885173,0.03708551686476217,-0.06735279622313586,1.3634728311996995
1765470636.066441,2.2171099185943604,0.00105036338919,0.00982224248985,-0.0178785745554,0.0025776406034,0.0130587251961,0.0275050410931,0.00248540242399,0.0127615928416,0.0139261578468,0.03708551686476217,-0.06735279622313586,1.3634728311996995
1765470636.0866084,2.2372772693634033,0.00110251488119,0.0101007274125,-0.0191650634999,0.00262456677132,0.0134409771102,0.023453127377,0.00245037322443,0.0141373729092,0.014291997614,0.03708551686476217,-0.06735279622313586,1.3634728311996995
1765470636.1071768,2.257845640182495,0.00115559488615,0.0103845510151,-0.0202881666759,0.00267130197598,0.0138278870474,0.0199878021477,0.0024217099162,0.0152631310945,0.0146376107917,0.03708551686476217,-0.06735279622313586,1.3634728311996995
1765470636.1267195,2.277388334274292,0.00120966435625,0.0106745508655,-0.0212670465631,0.00271793887949,0.0142189209433,0.0170337074196,0.00239825346726,0.0161843886546,0.0149607384169,0.03708551686476217,-0.06735279622313586,1.3634728311996995
1765470636.1469433,2.297612190246582,0.00126478310799,0.0109714775107,-0.0221191094673,0.00276455587102,0.0146137632012,0.014524141952,0.00237905337049,0.0169384769797,0.015260254253,0.03708551686476217,-0.06735279622313586,1.3634728311996995
1765470636.1670325,2.3177013397216797,0.00132086190096,0.0112752213709,-0.0228601334134,0.0028110954818,0.0150113288166,0.0124010322485,0.00236333894415,0.0175556647776,0.0155358809964,0.03708551686476217,-0.06735279622313586,1.3634728311996995
1765470636.1872914,2.3379602432250977,0.00139437403118,0.011587234434,-0.0214902388907,0.00302150176806,0.0154262396403,0.0153243976466,0.00415621295644,0.0182320348545,0.0151295888379,0.036675910205540375,-0.06749210035409303,1.363160176087724
1765470636.2075489,2.358217716217041,0.00146963548628,0.0119072805319,-0.0203167564133,0.00323863973201,0.0158443932465,0.0176373338774,0.00562381609234,0.0187856949774,0.0147487353469,0.036675910205540375,-0.06749210035409303,1.363160176087724
1765470636.2278578,2.3785266876220703,0.00154747703394,0.0122365680957,-0.0193131982449,0.00346183662624,0.0162664853918,0.0194300748515,0.00682589602059,0.0192391852327,0.0143955488151,0.036675910205540375,-0.06749210035409303,1.363160176087724
1765470636.2481275,2.398796319961548,0.00162755968149,0.012571320326,-0.0184623426395,0.00368853702431,0.0166874677576,0.0207758835104,0.00780895877505,0.0196100502384,0.0140715657958,0.036675910205540375,-0.06749210035409303,1.363160176087724
1765470636.2681057,2.4187746047973633,0.00171080000451,0.0129141546911,-0.0177416765402,0.00391885553612,0.0171099620756,0.0217455009956,0.00861317858764,0.0199134459108,0.0137767998608,0.036675910205540375,-0.06749210035409303,1.363160176087724
1765470636.2884367,2.43910551071167,0.00179753716434,0.0132652042159,-0.0171339649596,0.00415216698853,0.0175337285234,0.0223980544511,0.00927122847216,0.0201616982967,0.0135105613381,0.036675910205540375,-0.06749210035409303,1.363160176087724
1765470636.3083673,2.459036111831665,0.00188795614817,0.0136241975081,-0.0166245641819,0.00438775071988,0.0179581376556,0.0227845478256,0.009809657759,0.0203648232545,0.0132717291153,0.036675910205540375,-0.06749210035409303,1.363160176087724
1765470636.3289893,2.4796581268310547,0.00198236273783,0.0139915662173,-0.0174834220641,0.00462535721375,0.0183834251021,0.0199001320182,0.0102502750738,0.02053104819,0.0128169297932,0.036675910205540375,-0.06749210035409303,1.363160176087724
1765470636.3492334,2.4999022483825684,0.0020808610605,0.0143670652082,-0.0182357444434,0.00486446044419,0.0188091063593,0.0174041469674,0.0106108344154,0.020667070882,0.0124757338286,0.036675910205540375,-0.06749210035409303,1.363160176087724
1765470636.3693655,2.5200343132019043,0.00218377083567,0.014751407309,-0.0188939965724,0.00510513793613,0.0192357907358,0.0152480208304,0.0109059545954,0.0207784063454,0.0122235118838,0.036675910205540375,-0.06749210035409303,1.363160176087724
1765470636.3896272,2.5402960777282715,0.00226931521423,0.0151311825338,-0.0194687137037,0.00513188456777,0.0195377306866,0.0134163485155,0.00878240710636,0.0194962905207,0.0123760550508,0.03576252085304885,-0.0677943524930602,1.3626740160307302
1765470636.4096937,2.5603625774383545,0.00235843396321,0.0155186469104,-0.019970769142,0.00515080508904,0.0198347560268,0.011846186075,0.00704472769472,0.0184471469138,0.0125215760039,0.03576252085304885,-0.0677943524930602,1.3626740160307302
1765470636.4298215,2.5804903507232666,0.00245050953154,0.0159137568169,-0.0204087313709,0.00516347145974,0.0201281001068,0.010504195555,0.00562260596207,0.0175885248263,0.0126587060398,0.03576252085304885,-0.0677943524930602,1.3626740160307302
1765470636.4499893,2.6006581783294678,0.00254492361854,0.0163160456984,-0.0207904111851,0.00517097101955,0.0204183382025,0.00936098023597,0.00445869267189,0.0168857990075,0.0127866511662,0.03576252085304885,-0.0677943524930602,1.3626740160307302
1765470636.4715142,2.622183084487915,0.00264286331678,0.0167318866767,-0.0211213760505,0.00517546570065,0.0207113407136,0.00839069665015,0.00350382288331,0.0163092855682,0.0129049823378,0.03576252085304885,-0.0677943524930602,1.3626740160307302
1765470636.4904943,2.6411631107330322,0.0027406441481,0.0171479603294,-0.0248996814765,0.00517513229285,0.0209969747771,-0.000717586563935,0.00272327645389,0.0158380218294,0.0123556434919,0.03576252085304885,-0.0677943524930602,1.3626740160307302
1765470636.510306,2.6609747409820557,0.00284001350914,0.0175723294711,-0.0281506459625,0.0051721886775,0.0212822680833,-0.00813962404692,0.00208456064765,0.0154523899342,0.0120401236378,0.03576252085304885,-0.0677943524930602,1.3626740160307302
1765470636.530725,2.68139386177063,0.00293976843012,0.0180010002654,-0.0309387801186,0.00516670233535,0.0215646894822,-0.0141107370255,0.00156230939887,0.0151370748335,0.0118974886976,0.03576252085304885,-0.0677943524930602,1.3626740160307302
1765470636.5508807,2.701549530029297,0.00304025746796,0.0184361521762,-0.0333246717332,0.00515936024902,0.021846207035,-0.0188412582529,0.00113509833274,0.0148791413183,0.0118792846727,0.03576252085304885,-0.0677943524930602,1.3626740160307302
1765470636.57319,2.7238588333129883,0.00314118607641,0.0188771897227,-0.0353601585446,0.0051504645274,0.0221266816568,-0.0225137831399,0.000785595894406,0.0146681252665,0.0119483541581,0.03576252085304885,-0.0677943524930602,1.3626740160307302
1765470636.5926802,2.743349075317383,0.00329306068162,0.0192974542388,-0.037105371451,0.00564234466666,0.0221435948379,-0.0256013443121,0.00602560215344,0.0116045018842,0.00815610763336,0.0353273478473623,-0.06782373048883515,1.3626282096599809
1765470636.6121125,2.7627813816070557,0.00344730054807,0.0197230481627,-0.0385871908306,0.00615334349433,0.0221496727147,-0.0279395291399,0.0103140090695,0.00909724081398,0.00511334937924,0.0353273478473623,-0.06782373048883515,1.3626282096599809
1765470636.632066,2.7827348709106445,0.00360802079124,0.0201606433879,-0.0370925682111,0.00668467455142,0.0221494642893,-0.023091068804,0.013833194068,0.00703971322431,0.00318928194006,0.0353273478473623,-0.06782373048883515,1.3626282096599809
1765470636.6522825,2.8029513359069824,0.00377177510672,0.0205925579027,-0.0357783352528,0.00722445946308,0.0221384163406,-0.018943572506,0.0167085183212,0.00535862542051,0.00156234388711,0.0353273478473623,-0.06782373048883515,1.3626282096599809
1765470636.6722672,2.8229360580444336,0.0039421727618,0.02102673204,-0.0346318776517,0.0077744904155,0.0221213851526,-0.015403601677,0.0190591402482,0.00398431021119,0.000184628874699,0.0353273478473623,-0.06782373048883515,1.3626282096599809
1765470636.6923497,2.8430185317993164,0.00412010286131,0.0214623441799,-0.033632660759,0.00833270726568,0.0220994056957,-0.0123920123861,0.0209813942496,0.00286044470142,-0.000983468101147,0.0353273478473623,-0.06782373048883515,1.3626282096599809
1765470636.7124848,2.8631536960601807,0.00430654713094,0.0218994218321,-0.0327628796231,0.0088980505256,0.0220734364367,-0.00983905707613,0.0225539518244,0.00194103279274,-0.00197505208697,0.0353273478473623,-0.06782373048883515,1.3626282096599809
1765470636.732469,2.8831379413604736,0.00450377623998,0.0223413104931,-0.0320067836222,0.00947328962999,0.0220444153197,-0.00768103524067,0.0238423419256,0.0011877623109,-0.00281844902524,0.0353273478473623,-0.06782373048883515,1.3626282096599809
1765470636.7528903,2.9035592079162598,0.00470895507826,0.0227796206001,-0.0313493371483,0.01004894051,0.0220123474717,-0.00587002498213,0.0248958064181,0.000571843494742,-0.00353536182723,0.0353273478473623,-0.06782373048883515,1.3626282096599809
1765470636.7745483,2.9252171516418457,0.00492419432151,0.0232182315309,-0.0311467816596,0.0106284114356,0.0219780750482,-0.00523064500504,0.0257574790997,6.80577271583e-05,-0.00421453903569,0.0353273478473623,-0.06782373048883515,1.3626282096599809
1765470636.7932804,2.9439492225646973,0.00513403672537,0.0236880630715,-0.0309573608635,0.0110549799701,0.0222520052839,-0.00442060723452,0.0247473467194,0.0030674617002,-0.00145879770354,0.03588932893282866,-0.06764780789288939,1.3628657636292159
1765470636.813486,2.9641549587249756,0.0053547010634,0.0241604897217,-0.0307901043613,0.0114795076318,0.0225370327919,-0.00368287956569,0.0239204363068,0.00552282143832,0.000790374963008,0.03588932893282866,-0.06764780789288939,1.3628657636292159
1765470636.833513,2.9841818809509277,0.00558441846084,0.0246336908548,-0.0306416473808,0.0118995480612,0.0228307120653,-0.0030106184081,0.0232439246647,0.00753159944253,0.00262446228347,0.03588932893282866,-0.06764780789288939,1.3628657636292159
1765470636.85366,3.004328966140747,0.00582360898636,0.0251099090889,-0.0305096800081,0.0123171962893,0.0231316588034,-0.00239738719026,0.0226903688514,0.00917528252621,0.00411986472764,0.03588932893282866,-0.06764780789288939,1.3628657636292159
1765470636.8739562,3.024625062942505,0.00607194834884,0.0255896499956,-0.0303920192306,0.0127327184168,0.0234384988367,-0.00183751145071,0.0222374003257,0.0105202899945,0.00533876920921,0.03588932893282866,-0.06764780789288939,1.3628657636292159
1765470636.89419,3.044858932495117,0.00632933579873,0.0260736364712,-0.0302868386345,0.0131466385515,0.0237502234528,-0.00132587626567,0.0218667066617,0.0116209972586,0.00633201395011,0.03588932893282866,-0.06764780789288939,1.3628657636292159
1765470636.9141989,3.0648677349090576,0.00659576199653,0.0265625787905,-0.0283596397186,0.0135594779854,0.0240660878132,0.00349629499432,0.0215633022555,0.012521901337,0.00748656019386,0.03588932893282866,-0.06764780789288939,1.3628657636292159
1765470636.934179,3.084847927093506,0.00687078648012,0.0270562863003,-0.0266988499543,0.013970966012,0.0243850888837,0.00746274243847,0.0213149979622,0.0132591956743,0.00836312270294,0.03588932893282866,-0.06764780789288939,1.3628657636292159
1765470636.9541867,3.104855537414551,0.00715459738901,0.0275555778462,-0.025270497716,0.0143817588463,0.0247069024916,0.0106931828896,0.021111765542,0.0138626573003,0.00902185355408,0.03588932893282866,-0.06764780789288939,1.3628657636292159
1765470636.9752283,3.125897169113159,0.00744854067481,0.0280631112034,-0.0240432688094,0.0147940278956,0.0250324179363,0.0132938840005,0.0209452967388,0.0143569560668,0.00951111079417,0.03588932893282866,-0.06764780789288939,1.3628657636292159
1765470636.9955924,3.146261215209961,0.00771315677478,0.0285789732089,-0.0229745853502,0.0147518810027,0.0252415448526,0.0155319342198,0.0156726992299,0.0133639706316,0.0119693234236,0.03592792396268879,-0.0676579403885993,1.3632607104188748
1765470637.0159252,3.1665940284729004,0.00797565317199,0.0290855308956,-0.0220696378656,0.0146779790927,0.0254385248455,0.0173031179094,0.0113672936424,0.0125531359276,0.0139389651206,0.03592792396268879,-0.0676579403885993,1.3632607104188748
1765470637.0358033,3.186472177505493,0.0082410525139,0.0295939006493,-0.0213018631913,0.0145870973461,0.0256309391802,0.0186801613812,0.00785304822711,0.0118912999906,0.0155147680753,0.03592792396268879,-0.0676579403885993,1.3632607104188748
1765470637.056366,3.2070348262786865,0.00851223774848,0.0301114362409,-0.0213836727616,0.0144849319563,0.0258229687016,0.0179798963395,0.00497842800364,0.0113499243198,0.0166376299106,0.03592792396268879,-0.0676579403885993,1.3632607104188748
1765470637.076086,3.226754903793335,0.00878320096016,0.0306294050461,-0.0214649378429,0.0143714530503,0.0260111645629,0.0173266003235,0.00262999873475,0.0109076459066,0.0175584828628,0.03592792396268879,-0.0676579403885993,1.3632607104188748
1765470637.0962913,3.246960163116455,0.00905600686717,0.0311530320308,-0.021541971511,0.0142497839038,0.0261983020472,0.0167194895061,0.000709596646398,0.0105459776207,0.0183147687943,0.03592792396268879,-0.0676579403885993,1.3632607104188748
1765470637.1165395,3.2672083377838135,0.00932848640113,0.0316796697739,-0.0216159872896,0.0141212203066,0.0263836297093,0.0161546779024,-0.00086057751784,0.0102502675702,0.0189362871446,0.03592792396268879,-0.0676579403885993,1.3632607104188748
1765470637.1365168,3.2871856689453125,0.00960089060343,0.0322108525293,-0.0216859967047,0.0139870676913,0.0265680537443,0.0156301199748,-0.00214498163192,0.0100083764386,0.0194476458325,0.03592792396268879,-0.0676579403885993,1.3632607104188748
1765470637.1565943,3.307263135910034,0.0098725967465,0.0327463281104,-0.0217521699986,0.0138482917731,0.0267516939626,0.0151429330481,-0.00319587604133,0.00981046206323,0.0198688151573,0.03592792396268879,-0.0676579403885993,1.3632607104188748
1765470637.1762261,3.326894998550415,0.0101563055197,0.0332580166671,-0.0218335286955,0.0138365440251,0.0266589160441,0.0142838667282,-0.00261677512655,0.00661561037464,0.01515036216,0.036166726288684836,-0.0676560179191874,1.3634531238076328
1765470637.1971247,3.3477935791015625,0.0104387004426,0.0337720864984,-0.0222789497499,0.0138269294198,0.0265544984149,0.0125699973755,-0.0021429431917,0.00400151891231,0.0112234535311,0.036166726288684836,-0.0676560179191874,1.3634531238076328
1765470637.217273,3.3679418563842773,0.0107201009482,0.0342876888733,-0.0226707569717,0.0138190365571,0.0264406417437,0.011039268853,-0.00175522862528,0.0018625298249,0.00802620662413,0.036166726288684836,-0.0676560179191874,1.3634531238076328
1765470637.2373884,3.388057231903076,0.0110007078934,0.0348040126011,-0.0230159152317,0.0138125475853,0.0263190772164,0.00967119621762,-0.00143796056365,0.000112188258273,0.0054239541546,0.036166726288684836,-0.0676560179191874,1.3634531238076328
1765470637.2574964,3.408165216445923,0.0112810447961,0.0353210759881,-0.0233203129063,0.0138071723174,0.026191183876,0.00844746675764,-0.00117827211755,-0.00132049134792,0.00330636084843,0.036166726288684836,-0.0676560179191874,1.3634531238076328
1765470637.27759,3.4282588958740234,0.0115605707646,0.0358370514446,-0.0235894083816,0.0138027676283,0.0260581186688,0.00735232299766,-0.000965758558519,-0.0024929110171,0.00158442709568,0.036166726288684836,-0.0676560179191874,1.3634531238076328
1765470637.2977026,3.448371410369873,0.011839841486,0.0363523392526,-0.0238274196317,0.0137991223769,0.0259207816627,0.00637165902069,-0.000791824762582,-0.00345248933492,0.000184798586789,0.036166726288684836,-0.0676560179191874,1.3634531238076328
1765470637.3177161,3.4683849811553955,0.012118665858,0.0368660453179,-0.02403829077,0.0137961155043,0.0257799899006,0.00549310624121,-0.000649475530959,-0.00423781823254,-0.000952064134742,0.036166726288684836,-0.0676560179191874,1.3634531238076328
1765470637.3393013,3.4899702072143555,0.0123974219722,0.0373784405684,-0.0242252626388,0.0137936167214,0.0256362813065,0.00470550333574,-0.000532958616979,-0.0048806323775,-0.00187499110224,0.036166726288684836,-0.0676560179191874,1.3634531238076328
1765470637.3580613,3.508730173110962,0.0126757996046,0.0378885898681,-0.0276898767441,0.013791548773,0.025490285337,-0.00383739090807,-0.000437597532867,-0.00540673156474,-0.00324501048696,0.036166726288684836,-0.0676560179191874,1.3634531238076328
1765470637.3774867,3.528155565261841,0.0129695246127,0.0384173799929,-0.0306658238075,0.0139276911058,0.0255185699746,-0.0106042741663,0.00115949718327,-0.0038896880376,-0.00123301854567,0.03682808073351398,-0.06752077510889262,1.3640861571987448
1765470637.3984036,3.549072504043579,0.0132621342886,0.0389417229438,-0.0332200986173,0.0140696735811,0.0255529517923,-0.0160328444497,0.00246610351784,-0.00264857274096,0.00051848446489,0.03682808073351398,-0.06752077510889262,1.3640861571987448
1765470637.4193394,3.5700082778930664,0.013555521492,0.0394646373261,-0.0354063967766,0.0142163619472,0.0255918631255,-0.0203163251087,0.00353511319905,-0.00163314503905,0.00204169729483,0.03682808073351398,-0.06752077510889262,1.3640861571987448
1765470637.4398367,3.590505599975586,0.013857178596,0.039999133487,-0.0372853691306,0.0143688940299,0.0256339322546,-0.0236297474874,0.00441294855482,-0.000799309430605,0.0033690327172,0.03682808073351398,-0.06752077510889262,1.3640861571987448
1765470637.4603899,3.6110587120056152,0.0141541099871,0.0405216111932,-0.0388732096342,0.0145229446305,0.0256797166188,-0.0261068990228,0.00513005527267,-0.000118146257501,0.00451941901053,0.03682808073351398,-0.06752077510889262,1.3640861571987448
1765470637.479647,3.6303157806396484,0.0144540250244,0.0410456476713,-0.040218429511,0.0146799114107,0.0257279532746,-0.0278772704444,0.00571649427554,0.000438898659357,0.0055159049076,0.03682808073351398,-0.06752077510889262,1.3640861571987448
1765470637.5004299,3.6510987281799316,0.0147623009862,0.0415803503972,-0.0380452605603,0.0148414940406,0.0257785395827,-0.0211722373153,0.00619758495383,0.000895875626403,0.00700855160408,0.03682808073351398,-0.06752077510889262,1.3640861571987448
1765470637.520206,3.670874834060669,0.0150660282472,0.0421030620345,-0.0361463239085,0.015002011269,0.0258305057166,-0.0154638153348,0.00659025441807,0.0012688633165,0.00814729550577,0.03682808073351398,-0.06752077510889262,1.3640861571987448
1765470637.5405354,3.691204309463501,0.0153722889991,0.0426260659682,-0.0344975681102,0.015163851299,0.0258837676181,-0.0106151518006,0.00691102540759,0.0015735562996,0.00900886082778,0.03682808073351398,-0.06752077510889262,1.3640861571987448
1765470637.5605524,3.711221218109131,0.0156815611047,0.0431500762233,-0.0330668719732,0.0153269243837,0.0259381269921,-0.00650957575246,0.00717325833715,0.0018226453263,0.00965388151808,0.03682808073351398,-0.06752077510889262,1.3640861571987448
1765470637.5799904,3.730659246444702,0.0159980308057,0.0436767599401,-0.0318239658587,0.0155331393685,0.0260120198566,-0.00299625018968,0.00785152813817,0.0022312919602,0.0107656819208,0.037421919883520414,-0.06742988641431526,1.3642575316148913
1765470637.6009085,3.751577377319336,0.0163174853172,0.0442040455291,-0.0307471602817,0.0157416912235,0.0260873480562,-3.79652775104e-05,0.00840631864975,0.00256554431042,0.0116306038724,0.037421919883520414,-0.06742988641431526,1.3642575316148913
1765470637.620782,3.7714507579803467,0.0166427796644,0.0447363857161,-0.0298143048483,0.0159535690635,0.0261642951967,0.00244462983317,0.00886071668614,0.00283931181083,0.0123007280748,0.037421919883520414,-0.06742988641431526,1.3642575316148913
1765470637.641228,3.7918968200683594,0.0169692667864,0.0452659213379,-0.0308442267854,0.0161657954176,0.0262418300729,0.000150404796073,0.00923229210373,0.00306318001698,0.0124689097112,0.037421919883520414,-0.06742988641431526,1.3642575316148913
1765470637.6612115,3.811880350112915,0.0172994150162,0.0457965825166,-0.031726934873,0.016379313074,0.0263201530671,-0.00168357090907,0.00953621879561,0.00324629095514,0.0126429967854,0.037421919883520414,-0.06742988641431526,1.3642575316148913
1765470637.681485,3.832153797149658,0.0176333325936,0.0463284194351,-0.0324814290193,0.0165938718673,0.0263991158422,-0.00312440494509,0.00978485541678,0.00339609051595,0.0128165949482,0.037421919883520414,-0.06742988641431526,1.3642575316148913
1765470637.7016034,3.8522722721099854,0.017971211942,0.0468616384451,-0.0331243701799,0.0168093280865,0.0264786181102,-0.00423034951817,0.00998829351428,0.00351865869402,0.0129851771529,0.037421919883520414,-0.06742988641431526,1.3642575316148913
1765470637.721708,3.8723769187927246,0.0183130567648,0.047396163977,-0.0336702898133,0.0170254736946,0.0265585464491,-0.00505202393206,0.0101547617498,0.00361895312552,0.0131456460316,0.037421919883520414,-0.06742988641431526,1.3642575316148913
1765470637.7417684,3.892437219619751,0.0186590732008,0.0479322526053,-0.034131982773,0.0172422584971,0.0266388503588,-0.00563324495918,0.0102909942918,0.00370103103854,0.0132960019348,0.037421919883520414,-0.06742988641431526,1.3642575316148913
1765470637.7621613,3.912830114364624,0.0190094368227,0.048470117683,-0.0345206554415,0.0174596449763,0.0267194905522,-0.00601197546899,0.0104024963252,0.00376820921828,0.0134350761707,0.037421919883520414,-0.06742988641431526,1.3642575316148913
1765470637.7815614,3.932230234146118,0.0193533315767,0.0490054339664,-0.0341241457157,0.0175697744923,0.0267570869811,-0.00472331022106,0.00930715080538,0.00334614149186,0.0106575726585,0.03686624299969698,-0.06747531827803632,1.363907592247655
1765470637.803728,3.954396963119507,0.0197015204002,0.0495428409343,-0.0337759575469,0.0176761307118,0.0267932230385,-0.00362922836235,0.00841045578943,0.00300061944441,0.00836931889518,0.03686624299969698,-0.06747531827803632,1.363907592247655
1765470637.8224835,3.9731523990631104,0.0200527200882,0.050080810183,-0.0334708350371,0.0177789765194,0.0268280124469,-0.00270572493027,0.00767662656477,0.00271785421023,0.00648397720601,0.03686624299969698,-0.06747531827803632,1.363907592247655
1765470637.8425517,3.993220567703247,0.0204068995283,0.0506196443662,-0.033204180888,0.0178790718931,0.0268617442682,-0.00193058301881,0.00707612045269,0.00248646215645,0.00493007165448,0.03686624299969698,-0.06747531827803632,1.363907592247655
1765470637.8636713,4.014340162277222,0.0207675928459,0.0511649090624,-0.0329716284623,0.0179783366363,0.0268951076961,-0.00128227347639,0.00658396582611,0.00229682100621,0.0036469559653,0.03686624299969698,-0.06747531827803632,1.363907592247655
1765470637.8838978,4.034566640853882,0.0211271743643,0.0517054004942,-0.0327692609105,0.0180743307506,0.0269272619342,-0.000747203851524,0.00618156263973,0.00214176363399,0.00258937933765,0.03686624299969698,-0.06747531827803632,1.363907592247655
1765470637.90316,4.053828954696655,0.0214895169153,0.0522471202006,-0.0325938893856,0.018168955405,0.0269588853312,-0.000308850371088,0.00585240128259,0.00201492841796,0.00171699012952,0.03686624299969698,-0.06747531827803632,1.363907592247655
1765470637.9246063,4.075275182723999,0.0218540431168,0.0527893602777,-0.0306081410851,0.0182623236843,0.0269900273024,0.00440288142551,0.00558312707216,0.0019111694198,0.00134279073216,0.03686624299969698,-0.06747531827803632,1.363907592247655
1765470637.9438713,4.094540119171143,0.0222205722255,0.0533319799022,-0.0289010590379,0.0183546384306,0.0270207668677,0.00822508167028,0.00536283293814,0.00182628383566,0.00096622282307,0.03686624299969698,-0.06747531827803632,1.363907592247655
1765470637.9635177,4.114186525344849,0.0225896728,0.0538759163556,-0.0274366728346,0.0184462711594,0.027051238536,0.0112852869822,0.00518255115364,0.00175681614576,0.000597729892139,0.03686624299969698,-0.06747531827803632,1.363907592247655
1765470637.9825332,4.133202075958252,0.0229625196067,0.0544133201434,-0.0261762532771,0.0185565785469,0.0270142762004,0.0138684194971,0.00524883297787,0.000960631759927,0.00242724543482,0.03690086409386801,-0.06749528782502272,1.3636404771903199
1765470638.0037458,4.154414653778076,0.0233377872738,0.0549515764462,-0.0250998303774,0.018667210144,0.0269744419259,0.0159027808268,0.00530308154858,0.000308992106832,0.00388042593439,0.03690086409386801,-0.06749528782502272,1.3636404771903199
1765470638.0265265,4.177195310592651,0.0237153826869,0.0554902401426,-0.0241832742761,0.0187780903332,0.0269322319844,0.0174694928166,0.00534748432289,-0.000224378783457,0.00503223533558,0.03690086409386801,-0.06749528782502272,1.3636404771903199
1765470638.0450604,4.1957292556762695,0.0241015694101,0.0560379764578,-0.0233996358558,0.018890959367,0.0268878943216,0.0186407498699,0.00538391780214,-0.000662021646099,0.00594530450836,0.03690086409386801,-0.06749528782502272,1.3636404771903199
1765470638.0647388,4.215407609939575,0.0244834377335,0.0565761409103,-0.0271511914436,0.0190021076704,0.0268420669719,0.00900309936913,0.00541369411378,-0.00101969789701,0.00583244823567,0.03690086409386801,-0.06749528782502272,1.3636404771903199
1765470638.0848727,4.235541582107544,0.0248675649113,0.0571139966865,-0.0303865344404,0.0191133810474,0.0267949508822,0.00105198090188,0.00543804152647,-0.00131216163117,0.0058741025585,0.03690086409386801,-0.06749528782502272,1.3636404771903199
1765470638.1050923,4.25576114654541,0.0252535863656,0.0576508983967,-0.0331712518704,0.0192246538371,0.0267468040841,-0.00544825605501,0.00545795337314,-0.0015513448703,0.0060232973914,0.03690086409386801,-0.06749528782502272,1.3636404771903199
1765470638.1251884,4.275857210159302,0.0256442479709,0.0581905365043,-0.0355657488033,0.0193366852958,0.0266975867337,-0.0107074431117,0.00547425711144,-0.00174718712437,0.00624389719778,0.03690086409386801,-0.06749528782502272,1.3636404771903199
1765470638.1452603,4.295929193496704,0.0260349571297,0.0587264515082,-0.0376161699619,0.0194481585778,0.0266478404441,-0.0148985178082,0.00548759097661,-0.00190735494382,0.0065090983645,0.03690086409386801,-0.06749528782502272,1.3636404771903199
1765470638.1665514,4.317220211029053,0.0264276914916,0.0592613266708,-0.0393673921578,0.0195596236003,0.0265975371378,-0.0181772449068,0.0054984977079,-0.00203836777049,0.0067983579016,0.03690086409386801,-0.06749528782502272,1.3636404771903199
1765470638.1858528,4.336521625518799,0.0268368885069,0.0598155442031,-0.0408656227448,0.0198146386682,0.0267499999748,-0.0208395556871,0.00708761931062,9.08808234454e-05,0.00510224534114,0.03673579387936433,-0.06754140628496233,1.3633055846832425
1765470638.2065535,4.357222318649292,0.0272668926102,0.0603938403237,-0.03994422578,0.0200825034393,0.0269112369698,-0.0175916920748,0.00839645326303,0.00184457471829,0.00417769257742,0.03673579387936433,-0.06754140628496233,1.3633055846832425
1765470638.2285101,4.379179000854492,0.0276839602163,0.0609508055998,-0.0391226046163,0.0203491700305,0.0270786006952,-0.0147877380809,0.00946418465737,0.00327521763839,0.00338872100477,0.03673579387936433,-0.06754140628496233,1.3633055846832425
1765470638.247633,4.398301839828491,0.0281034904319,0.0615072594465,-0.0384030323705,0.0206189743695,0.0272507831052,-0.0123683218898,0.0103356650893,0.00444290580091,0.00271448618728,0.03673579387936433,-0.06754140628496233,1.3633055846832425
1765470638.2671373,4.417806148529053,0.0285272977684,0.0620656296367,-0.0377736930641,0.0208918830064,0.027427064386,-0.0102829056891,0.0110476554512,0.00539689476842,0.00213734966637,0.03673579387936433,-0.06754140628496233,1.3633055846832425
1765470638.2871704,4.4378392696380615,0.0289554489898,0.0626260104318,-0.0372233360507,0.0211672415252,0.02760667309,-0.00848849275763,0.0116296675548,0.00617672713053,0.0016426654984,0.03673579387936433,-0.06754140628496233,1.3633055846832425
1765470638.3073292,4.457998037338257,0.0293884594069,0.0631890828402,-0.0367423478573,0.0214447532772,0.027789090645,-0.00694749397535,0.0121056557244,0.00681449905379,0.00121813835673,0.03673579387936433,-0.06754140628496233,1.3633055846832425
1765470638.3284774,4.479146242141724,0.0298274195425,0.0637562571954,-0.0363223044416,0.0217245658863,0.0279741313824,-0.00562674752206,0.0124951698284,0.00733640521692,0.0008533739968,0.03673579387936433,-0.06754140628496233,1.3633055846832425
1765470638.348515,4.499183893203735,0.0302702083412,0.0643248035403,-0.0359555394879,0.0220050772682,0.028160642115,-0.00449896698685,0.0128137754828,0.00776330183723,0.000539805904325,0.03673579387936433,-0.06754140628496233,1.3633055846832425
1765470638.3679395,4.518608331680298,0.0307182498082,0.0648965712243,-0.0334349841939,0.0222867705494,0.028348705068,0.00168781000772,0.0130744416316,0.00811256587716,0.000685257347735,0.03673579387936433,-0.06754140628496233,1.3633055846832425
1765470638.3883164,4.538985252380371,0.0311673676397,0.065475657145,-0.0312635213431,0.0225029611064,0.0285457723373,0.0067340524231,0.012539927798,0.00847309325629,0.000485114898417,0.03627957357868774,-0.06766934620820542,1.3627899966962032
1765470638.4080684,4.558737277984619,0.031619266434,0.0660551991843,-0.0293988547326,0.0227158595253,0.0287432880209,0.0108094163858,0.0121026928193,0.00876800644853,0.000244277309664,0.03627957357868774,-0.06766934620820542,1.3627899966962032
1765470638.4283333,4.579002141952515,0.03207554989,0.0666375975357,-0.0278019588165,0.0229268973004,0.0289416550292,0.0140529962986,0.0117450376303,0.00900924340037,-1.87367793436e-05,0.03627957357868774,-0.06766934620820542,1.3627899966962032
1765470638.4485362,4.599205017089844,0.0325366330956,0.0672236680304,-0.0264380115005,0.0231366667149,0.0291408977252,0.0165866235044,0.0114524156043,0.00920661575166,-0.00029022525917,0.03627957357868774,-0.06766934620820542,1.3627899966962032
1765470638.4687216,4.619390487670898,0.0330023895238,0.0678134864794,-0.0252767451317,0.0233453941431,0.0293408593835,0.0185159853089,0.0112129682272,0.00936812202119,-0.000560266162287,0.03627957357868774,-0.06766934620820542,1.3627899966962032
1765470638.4887276,4.63939642906189,0.0334730460286,0.0684075290379,-0.0242914048124,0.02355342139,0.0295415435877,0.0199328270391,0.011016994713,0.00950030534937,-0.000821873510489,0.03627957357868774,-0.06766934620820542,1.3627899966962032
1765470638.5088394,4.659508228302002,0.0339481736108,0.0690054127134,-0.0254755230304,0.0237607335083,0.0297427061065,0.016126562693,0.0108566028035,0.00960848903166,-0.0014503554398,0.03627957357868774,-0.06766934620820542,1.3627899966962032
1765470638.5289764,4.679645299911499,0.0344274141121,0.0696068181695,-0.0265100318927,0.0239673283986,0.0299441424833,0.0128539893665,0.0107253443596,0.00969702231142,-0.00192208347296,0.03627957357868774,-0.06766934620820542,1.3627899966962032
1765470638.548814,4.6994829177856445,0.0349108090951,0.0702119040418,-0.0274128971126,0.0241733610097,0.0301458208667,0.0100476548264,0.0106179286951,0.0097694737347,-0.00227094938977,0.03627957357868774,-0.06766934620820542,1.3627899966962032
1765470638.5693507,4.720019578933716,0.0354007096661,0.0708236836964,-0.0281999956427,0.0243799589312,0.0303486478667,0.00764580368816,0.0105299603748,0.00982880800441,-0.00252439619304,0.03627957357868774,-0.06766934620820542,1.3627899966962032
1765470638.5895188,4.740187644958496,0.0359125874453,0.0714272335352,-0.0288958326902,0.024779791444,0.0304535784233,0.00538823412902,0.0125986687382,0.00880545802431,-0.00533475668911,0.03566667618213042,-0.06776067598883832,1.362296379788157
1765470638.6097465,4.760415315628052,0.0364294983373,0.0720344080461,-0.0295027141935,0.0251871374595,0.0305547993663,0.00343114022869,0.0142914903134,0.00796805196164,-0.00760962566785,0.03566667618213042,-0.06776067598883832,1.362296379788157
1765470638.6296468,4.780315637588501,0.0369523039064,0.0726450499813,-0.0300319587785,0.0256007360357,0.0306530276764,0.00173674303853,0.0156768876954,0.00728272269609,-0.00944970971349,0.03566667618213042,-0.06776067598883832,1.362296379788157
1765470638.6498218,4.800490617752075,0.0374813634584,0.0732586132696,-0.0282937694566,0.026019354393,0.0307487441157,0.00549779869112,0.016810695991,0.00672184968116,-0.0105223022984,0.03566667618213042,-0.06776067598883832,1.362296379788157
1765470638.6715462,4.8222150802612305,0.03801703742,0.0738747398583,-0.0268045239255,0.0264420017709,0.0308423778443,0.00848049614965,0.0177385820814,0.00626284239479,-0.0114614460574,0.03566667618213042,-0.06776067598883832,1.362296379788157
1765470638.6900828,4.840751647949219,0.0385601446422,0.0744937468127,-0.0255323024717,0.0268682171087,0.0309344043249,0.0107983558706,0.0184980331556,0.00588715665024,-0.0122824948662,0.03566667618213042,-0.06776067598883832,1.362296379788157
1765470638.7102437,4.860912561416626,0.0391120408812,0.0751166504079,-0.0244485893984,0.0272981196434,0.0310253310481,0.0125501054103,0.0191198345831,0.00557956352128,-0.0129992991552,0.03566667618213042,-0.06776067598883832,1.362296379788157
1765470638.731019,4.881687879562378,0.0396714916929,0.0757415932386,-0.0235297033112,0.0277301826136,0.0311150707313,0.013821702736,0.0196287998772,0.00532778824314,-0.0136238740564,0.03566667618213042,-0.06776067598883832,1.362296379788157
1765470638.7505248,4.901193618774414,0.0402377176065,0.0763673825957,-0.0227547680501,0.0281632801076,0.0312036568895,0.0146880997116,0.0200452293392,0.00512178864973,-0.0141668592454,0.03566667618213042,-0.06776067598883832,1.362296379788157
1765470638.770875,4.921543836593628,0.0408123155018,0.0769955405835,-0.0221040859927,0.0285980765642,0.0312915388446,0.0152137934633,0.0203860046066,0.00495321372186,-0.014638019305,0.03566667618213042,-0.06776067598883832,1.362296379788157
1765470638.7909567,4.941625595092773,0.0413652310791,0.0776018397256,-0.0241192461239,0.0287415554583,0.0311470222247,0.00954803095308,0.0174465582798,0.00226357652444,-0.0131635424708,0.035403455997889716,-0.06785605876775519,1.361995708901087
1765470638.8110096,4.961678504943848,0.0419251597624,0.0782089765115,-0.0258672764536,0.0288742613144,0.0309927297746,0.00479782698726,0.0150412378259,6.26724611416e-05,-0.0118849209155,0.035403455997889716,-0.06785605876775519,1.361995708901087
1765470638.8310251,4.981693983078003,0.0424917666937,0.0788167478118,-0.0273810875888,0.0289984721344,0.0308304323253,0.000839272910188,0.0130725801991,-0.00173867860751,-0.0107760792645,0.035403455997889716,-0.06785605876775519,1.361995708901087
1765470638.851159,5.001827955245972,0.0430630835638,0.0794231785011,-0.0286893854292,0.0291152127005,0.0306616130569,-0.0024339912938,0.0114616081881,-0.00321274200695,-0.00981477591048,0.035403455997889716,-0.06785605876775519,1.361995708901087
1765470638.8713152,5.021984100341797,0.0436393200721,0.0800285927864,-0.0298177332323,0.0292261919578,0.0304874208466,-0.00511695767866,0.0101431514538,-0.00441914956863,-0.00898155091096,0.035403455997889716,-0.06785605876775519,1.361995708901087
1765470638.8917003,5.04236912727356,0.0442252791736,0.080638011019,-0.0307906854412,0.0293341587381,0.0303078753852,-0.00729602528928,0.00906255872051,-0.0054079080243,-0.00825881063545,0.035403455997889716,-0.06785605876775519,1.361995708901087
1765470638.912087,5.062755823135376,0.0448097738505,0.0812398687836,-0.031624444986,0.0294364124546,0.0301255325885,-0.0090359543524,0.00817874105647,-0.00621661435898,-0.00763320899275,0.035403455997889716,-0.06785605876775519,1.361995708901087
1765470638.9321866,5.082855463027954,0.0453977758187,0.0818393946521,-0.0305034270975,0.0295355012841,0.0299402220122,-0.00604508132632,0.007455681076,-0.00687822501733,-0.00674620780063,0.035403455997889716,-0.06785605876775519,1.361995708901087
1765470638.9517202,5.102389097213745,0.045988725039,0.0824360485593,-0.029534634469,0.029631934385,0.0297525304007,-0.00355300676288,0.00686408081851,-0.00741954806991,-0.00606035777002,0.035403455997889716,-0.06785605876775519,1.361995708901087
1765470638.9739335,5.124602317810059,0.0465825877356,0.0830298194614,-0.0286988147176,0.0297262397212,0.0295628428568,-0.00149140215428,0.00637997955357,-0.00786250794219,-0.00553352225455,0.035403455997889716,-0.06785605876775519,1.361995708901087
1765470638.9928977,5.143566608428955,0.0471892438852,0.083635103296,-0.0279752991397,0.0298846781885,0.0294808594264,0.000270355392012,0.00670093310843,-0.00701076814614,-0.00425871902642,0.03521305662470586,-0.06780528393709714,1.361889182457484
1765470639.012852,5.163520812988281,0.047794404122,0.0842333385946,-0.027353266032,0.0300433686614,0.0294030442208,0.0017155721192,0.00696342063582,-0.00631418426458,-0.00324177453546,0.03521305662470586,-0.06780528393709714,1.361889182457484
1765470639.0328133,5.1834821701049805,0.0484027189992,0.0848293232302,-0.0268195600965,0.0302030854476,0.0293276688842,0.00288861850319,0.00717816797117,-0.00574429230095,-0.002431740666,0.03521305662470586,-0.06780528393709714,1.361889182457484
1765470639.0529668,5.2036356925964355,0.0490138922095,0.0854229145045,-0.0263626639784,0.030363569971,0.0292543664201,0.0038285620569,0.00735387930521,-0.0052779932569,-0.00178773421873,0.03521305662470586,-0.06780528393709714,1.361889182457484
1765470639.0733285,5.223997354507446,0.0496281633039,0.0860144660977,-0.0261558391869,0.0305247219747,0.0291827348097,0.00413383585179,0.00749766834136,-0.00489640893582,-0.00131131107408,0.03521305662470586,-0.06780528393709714,1.361889182457484
1765470639.093659,5.244327783584595,0.0502523464778,0.0866105405931,-0.0259803792158,0.0306880949248,0.0291114405289,0.00435074405522,0.00761553454457,-0.00458361808379,-0.000927952635166,0.03521305662470586,-0.06780528393709714,1.361889182457484
1765470639.1138775,5.2645463943481445,0.0508727496541,0.0871981816959,-0.0258338243989,0.0308502057559,0.0290423711684,0.00449366155821,0.00771190653999,-0.0043278681085,-0.000620539897551,0.03521305662470586,-0.06780528393709714,1.361889182457484
1765470639.1338053,5.28447413444519,0.0514961725377,0.0877839603618,-0.0257113911777,0.0310126378586,0.028974237149,0.00457453970105,0.00779072771225,-0.00411869413873,-0.000374146081479,0.03521305662470586,-0.06780528393709714,1.361889182457484
1765470639.153952,5.304620742797852,0.0521228098111,0.0883681159075,-0.0256097057117,0.0311753691481,0.0289068498155,0.00460389525226,0.00785521015402,-0.00394757199046,-0.000176751804249,0.03521305662470586,-0.06780528393709714,1.361889182457484
1765470639.1752264,5.325895309448242,0.0527528087248,0.0889508290124,-0.0255258482193,0.031338378789,0.0288400592952,0.00459075818086,0.00790797228042,-0.00380755296871,-1.86785817641e-05,0.03521305662470586,-0.06780528393709714,1.361889182457484
1765470639.1959002,5.346569061279297,0.0533744047486,0.0895494855514,-0.0254565925048,0.0313899478074,0.0289503700398,0.00455949000255,0.00672321123061,-0.00174940743499,0.000314408454148,0.03535679658335369,-0.06778097426977177,1.361909821955932
1765470639.2145336,5.3652024269104,0.0539992002929,0.0901477451213,-0.0254003855192,0.0314373105713,0.0290681227615,0.00450080517146,0.00575360896814,-6.50318671863e-05,0.000584710464127,0.03535679658335369,-0.06778097426977177,1.361909821955932
1765470639.2349405,5.38560938835144,0.0546265479253,0.090746080629,-0.0257220244765,0.0314811699955,0.0291920182418,0.0035491679007,0.00496005090562,0.00131352289065,0.000734982533482,0.03535679658335369,-0.06778097426977177,1.361909821955932
1765470639.2545292,5.405198097229004,0.0552553679158,0.0913443665591,-0.0260018289277,0.0315220476459,0.0293209136756,0.00274357811918,0.00431067191121,0.00244161237102,0.000869489761194,0.03535679658335369,-0.06778097426977177,1.361909821955932
1765470639.2745605,5.42522931098938,0.0558857875642,0.0919434358831,-0.0262448340311,0.0315605458444,0.0294538881976,0.00206483798208,0.00377926498664,0.00336476289878,0.000989578955222,0.03535679658335369,-0.06778097426977177,1.361909821955932
1765470639.2947884,5.445457220077515,0.0565179250161,0.0925439864462,-0.0264555397974,0.0315971346991,0.0295902316825,0.00149604176154,0.0033443535894,0.00412028313633,0.00109654175209,0.03535679658335369,-0.06778097426977177,1.361909821955932
1765470639.3148575,5.465526342391968,0.0571514272477,0.0931461703064,-0.0266379313526,0.0316321402475,0.0297293232908,0.00102241379092,0.00298840854747,0.00473862444524,0.00119159565893,0.03535679658335369,-0.06778097426977177,1.361909821955932
1765470639.3348222,5.485491037368774,0.0577901940598,0.0937540597545,-0.0267955732924,0.0316662060129,0.0298713140882,0.000630720811366,0.00269681337032,0.00524517832934,0.00127592396967,0.03535679658335369,-0.06778097426977177,1.361909821955932
1765470639.3562229,5.50689172744751,0.0584258496744,0.0943600899804,-0.026931519083,0.0316988211852,0.0300145013949,0.00031003120247,0.00245829062605,0.00565953573997,0.00135052209842,0.03535679658335369,-0.06778097426977177,1.361909821955932
1765470639.3761733,5.52684211730957,0.0591418307527,0.0950061156907,-0.0268683112404,0.0320649240169,0.0301094762298,0.000396964619646,0.00590591840341,0.00536101910429,0.000301636701034,0.035589261418193185,-0.06771816527993793,1.3620469747520711
1765470639.3978267,5.548495531082153,0.0598140013084,0.0956108268693,-0.0268151068007,0.0324389207507,0.030195256435,0.000448399608712,0.00871045849806,0.00511818492156,-0.00055392506015,0.035589261418193185,-0.06771816527993793,1.3620469747520711
1765470639.4178128,5.568481683731079,0.0604900058717,0.0962180733436,-0.0267702917216,0.0328225146498,0.0302802924645,0.000471879717033,0.0109967735449,0.00492022182347,-0.00125332977943,0.035589261418193185,-0.06771816527993793,1.3620469747520711
1765470639.4373646,5.588033437728882,0.0611699956271,0.0968270071999,-0.026732857244,0.0332138209173,0.0303645991063,0.000472180322492,0.0128629130081,0.00475864008953,-0.00182580345175,0.035589261418193185,-0.06771816527993793,1.3620469747520711
1765470639.4597225,5.61039137840271,0.0618945555213,0.0974736426776,-0.0267012884557,0.0336278696551,0.0304538333938,0.000451141724724,0.0144006417369,0.00462549415953,-0.00229884175023,0.035589261418193185,-0.06771816527993793,1.3620469747520711
1765470639.4805696,5.6312384605407715,0.0625876616317,0.0980881571525,-0.0266759863833,0.0340326291206,0.0305372943955,0.000416376375788,0.0156522270088,0.00451712427486,-0.00268495778974,0.035589261418193185,-0.06771816527993793,1.3620469747520711
1765470639.4989748,5.649643659591675,0.0632851612303,0.0987028240969,-0.0266556796511,0.034440711955,0.0306201428195,0.000369120458934,0.0166722998645,0.00442880014688,-0.00300052973948,0.035589261418193185,-0.06771816527993793,1.3620469747520711
1765470639.5191464,5.669815301895142,0.0639895245849,0.0993194440116,-0.027376239458,0.034852295361,0.0307027175445,-0.0014354941391,0.0175048823592,0.00435671007763,-0.00339822429469,0.035589261418193185,-0.06771816527993793,1.3620469747520711
1765470639.5391257,5.689794540405273,0.064701025952,0.0999379142478,-0.0279958611103,0.0352667587257,0.0307850583061,-0.00291730969856,0.0181850733281,0.00429781499592,-0.00369728302684,0.035589261418193185,-0.06771816527993793,1.3620469747520711
1765470639.559576,5.71024489402771,0.0654203459344,0.100558549219,-0.0285280087569,0.0356838190369,0.0308672540131,-0.00412292071532,0.0187411574918,0.00424966583817,-0.00391966436488,0.035589261418193185,-0.06771816527993793,1.3620469747520711
1765470639.5787292,5.729398012161255,0.0661111179181,0.101151774705,-0.0289820547577,0.0357422010158,0.0306580976661,-0.00504592396462,0.0152360189721,0.00101422160746,-0.00350710366191,0.03567155725706583,-0.06773225090539092,1.3623010403200646
1765470639.5997777,5.750446557998657,0.0668070820155,0.101744575256,-0.0293697357583,0.0357877318709,0.0304375052339,-0.00576492140209,0.012369334034,-0.00163189328708,-0.00315359116765,0.03567155725706583,-0.06773225090539092,1.3623010403200646
1765470639.61988,5.7705488204956055,0.0675085204484,0.102337118505,-0.0296998684092,0.0358232699809,0.0302075738079,-0.00631060335296,0.0100240493962,-0.00379672574886,-0.00285069555129,0.03567155725706583,-0.06773225090539092,1.3623010403200646
1765470639.639994,5.79066276550293,0.068214001314,0.102928115222,-0.0299798935603,0.0358504398253,0.0299699677718,-0.00670931719969,0.00810512112317,-0.00556800679105,-0.00259127345982,0.03567155725706583,-0.06773225090539092,1.3623010403200646
1765470639.6598518,5.810520648956299,0.0689232537225,0.103517268333,-0.0298497566581,0.0358708432317,0.0297259728075,-0.00611301118682,0.00653474432863,-0.00701755479361,-0.00229996949935,0.03567155725706583,-0.06773225090539092,1.3623010403200646
1765470639.6801577,5.8308265209198,0.0696352556617,0.10410366321,-0.0297332666696,0.0358856026877,0.029476758819,-0.00557562918272,0.00524956643288,-0.00820384782735,-0.00206637119564,0.03567155725706583,-0.06773225090539092,1.3623010403200646
1765470639.7001567,5.850825548171997,0.0703500023466,0.104687237068,-0.0296289527634,0.0358957951647,0.0292231270158,-0.00509110073529,0.00419765537453,-0.00917482216853,-0.00187946528605,0.03567155725706583,-0.06773225090539092,1.3623010403200646
1765470639.7204857,5.871154546737671,0.0710656264313,0.105266420188,-0.029535343384,0.0359020727137,0.0289661988558,-0.00465416866686,0.00333687176244,-0.00996937489618,-0.00173038043584,0.03567155725706583,-0.06773225090539092,1.3623010403200646
1765470639.7405577,5.891226530075073,0.0717825562668,0.10584152983,-0.0294513806842,0.0359052361865,0.028706427337,-0.00426005377302,0.00263245611308,-0.0106195910106,-0.00161183899943,0.03567155725706583,-0.06773225090539092,1.3623010403200646
1765470639.7609313,5.911600112915039,0.0725026135099,0.106413972633,-0.0293761572551,0.0359059805194,0.0284436854485,-0.00390426032199,0.00205573242619,-0.0111519401075,-0.00151787029675,0.03567155725706583,-0.06773225090539092,1.3623010403200646
1765470639.780292,5.9309608936309814,0.073265674951,0.106994521603,-0.0293157606809,0.0363351712658,0.0283150109838,-0.00374039440902,0.00632418968249,-0.0100949150083,-0.00340509943483,0.036292860255813714,-0.06767262522529757,1.3627005144835764
1765470639.8012388,5.951907634735107,0.0740306798058,0.107570585644,-0.0288958026971,0.0367798034761,0.0281903021768,-0.00274284415837,0.00981699962622,-0.00922996836463,-0.00488256704494,0.036292860255813714,-0.06767262522529757,1.3627005144835764
1765470639.821333,5.972001791000366,0.0747991364456,0.1081425828,-0.0285339307889,0.0372369902812,0.0280688218924,-0.00194090477752,0.0126750806499,-0.00852220366272,-0.00610654744589,0.036292860255813714,-0.06767262522529757,1.3627005144835764
1765470639.8412907,5.991959571838379,0.0755726685192,0.108711144246,-0.0282230870055,0.037704546097,0.0279498898903,-0.00130671761854,0.0150140074276,-0.00794300041414,-0.00712107399597,0.036292860255813714,-0.06767262522529757,1.3627005144835764
1765470639.8614597,6.012128591537476,0.0763523406521,0.109276576264,-0.0279569751622,0.0381806525636,0.0278330280766,-0.000815931296137,0.0169282353507,-0.00746896803222,-0.00796239751072,0.036292860255813714,-0.06767262522529757,1.3627005144835764
1765470639.8815582,6.032227039337158,0.0771387686081,0.109838941971,-0.0277300227723,0.0386637091767,0.0277178957123,-0.000447284756562,0.0184948994996,-0.00708100506855,-0.00866035202631,0.036292860255813714,-0.06767262522529757,1.3627005144835764
1765470639.9033139,6.053982734680176,0.0779335248841,0.110399053979,-0.0275372753229,0.0391529107613,0.0276040181668,-0.000182386966636,0.019777341764,-0.0067634257699,-0.00923964911135,0.036292860255813714,-0.06767262522529757,1.3627005144835764
1765470639.9218369,6.072505712509155,0.0787356716859,0.11095599395,-0.0273743928537,0.039646515149,0.027491406068,-4.90034577339e-06,0.020826921274,-0.00650351174966,-0.00972049518963,0.036292860255813714,-0.06767262522529757,1.3627005144835764
1765470639.9419692,6.09263801574707,0.0795457848622,0.111509985751,-0.0301701838376,0.040143716788,0.0273798126687,-0.00686839878832,0.0216858556816,-0.00629080838334,-0.0106721446013,0.036292860255813714,-0.06767262522529757,1.3627005144835764
1765470639.9619293,6.112598180770874,0.0803744352943,0.112067985964,-0.0325832902237,0.0406493779149,0.0272675061415,-0.0124989186819,0.0223900562507,-0.00611642273726,-0.0113538761594,0.036292860255813714,-0.06767262522529757,1.3627005144835764
1765470639.9817681,6.132436990737915,0.0811830768616,0.112655117686,-0.0346412728786,0.0409511997048,0.0275294951524,-0.0167776757919,0.0207451623692,-0.00187441069084,-0.00840383271088,0.036592295269690295,-0.06754379064637578,1.3628327404316989
1765470640.0039666,6.154635429382324,0.0820498905451,0.113274721379,-0.036431519365,0.0412709327587,0.0278074257287,-0.020154174724,0.0193877779525,0.00162614403292,-0.00589766156345,0.036592295269690295,-0.06754379064637578,1.3628327404316989
1765470640.0240974,6.174766302108765,0.0828742675453,0.113860875731,-0.0379344245459,0.0415606008566,0.0280993916269,-0.0227093640162,0.0182829083278,0.0044754890942,-0.00379385646943,0.036592295269690295,-0.06754379064637578,1.3628327404316989
1765470640.0463173,6.196986198425293,0.0837083128426,0.11445015715,-0.0392087986334,0.0418474480903,0.0284013400945,-0.0245834295095,0.0173815834742,0.00679991313762,-0.00202411865035,0.036592295269690295,-0.06754379064637578,1.3628327404316989
1765470640.0642614,6.214930295944214,0.0845540210444,0.115045183885,-0.0402872948858,0.0421329596018,0.028712296655,-0.0258849153058,0.0166449775605,0.00869954398574,-0.000532833640473,0.036592295269690295,-0.06754379064637578,1.3628327404316989
1765470640.0846279,6.235296726226807,0.0854004648766,0.115639527036,-0.0386141305719,0.0424134164122,0.0290288175626,-0.0205919579071,0.0160434823631,0.0102507382008,0.00120962161272,0.036592295269690295,-0.06754379064637578,1.3628327404316989
1765470640.1049383,6.2556071281433105,0.0862585173497,0.116241432659,-0.0371577463415,0.0426936459212,0.0293520542472,-0.0160488678731,0.0155515183493,0.0115194627648,0.00257452844256,0.036592295269690295,-0.06754379064637578,1.3628327404316989
1765470640.1249895,6.275658369064331,0.0871172325986,0.116844060857,-0.0358886064168,0.0429700305433,0.0296783137877,-0.0121645866696,0.0151495275373,0.0125561557008,0.0036369596033,0.036592295269690295,-0.06754379064637578,1.3628327404316989
1765470640.1451511,6.295819997787476,0.0879821874085,0.117451779635,-0.0347850407878,0.043245039857,0.0300082185742,-0.00885144327397,0.0148208681648,0.0134037344005,0.00445978781683,0.036592295269690295,-0.06754379064637578,1.3628327404316989
1765470640.1645024,6.315171241760254,0.0888535987597,0.118065191093,-0.0338259707382,0.0435190385192,0.0303412466805,-0.00603359994162,0.0145520454196,0.0140970005961,0.00509311721168,0.036592295269690295,-0.06754379064637578,1.3628327404316989
1765470640.1861312,6.3368000984191895,0.0897324858795,0.118640824653,-0.0330039234147,0.0438043315902,0.0302446707087,-0.00387864747312,0.0144655404612,0.00991431469861,0.0026741875765,0.03608741818366012,-0.06761633681894523,1.3625575027330392
1765470640.2067263,6.357395172119141,0.0906271925229,0.119227478551,-0.032292012639,0.0440925665415,0.0301348226688,-0.00210195146508,0.0143946413797,0.0064862038242,0.000662337698423,0.03608741818366012,-0.06761633681894523,1.3625575027330392
1765470640.2279856,6.378654479980469,0.0915180974571,0.119810271138,-0.0316772783888,0.0443773623876,0.0300105881915,-0.000656904711824,0.0143366761518,0.00368347036593,-0.00100815250959,0.03608741818366012,-0.06761633681894523,1.3625575027330392
1765470640.2462373,6.396906137466431,0.0924152207705,0.120394954681,-0.0313319425452,0.0446620771835,0.0298763521642,6.82054210133e-05,0.0142892666365,0.00139112649568,-0.00243111075939,0.03608741818366012,-0.06761633681894523,1.3625575027330392
1765470640.266606,6.4172749519348145,0.0933213793181,0.120982441288,-0.0310357819331,0.0449476448573,0.0297338715291,0.000632120822708,0.0142504629395,-0.000485109035279,-0.00360807547266,0.03608741818366012,-0.06761633681894523,1.3625575027330392
1765470640.2862937,6.436962604522705,0.0942323477594,0.121569125543,-0.0307828317417,0.0452327463771,0.0295844689668,0.00105848946248,0.0142187135785,-0.00202025345671,-0.0045815968585,0.03608741818366012,-0.06761633681894523,1.3625575027330392
1765470640.3065982,6.4572670459747314,0.0951455757596,0.122152747918,-0.0305679003077,0.0455166241031,0.0294296507611,0.0013681318735,0.0141927515584,-0.00327556849688,-0.00538662387016,0.03608741818366012,-0.06761633681894523,1.3625575027330392
1765470640.327147,6.477815866470337,0.0960644584772,0.122735038848,-0.0303860785493,0.0458003787548,0.0292703612278,0.00157902568365,0.0141715158472,-0.00430235715367,-0.00605266254866,0.03608741818366012,-0.06761633681894523,1.3625575027330392
1765470640.3468297,6.497498512268066,0.0969887984422,0.123315453008,-0.0302330967829,0.0460839696101,0.029107426085,0.00170698714144,0.0141541431483,-0.00514236151654,-0.00660389717307,0.03608741818366012,-0.06761633681894523,1.3625575027330392
1765470640.3670158,6.517684698104858,0.0979194896483,0.123894209511,-0.0301051481604,0.0463676870542,0.028941405637,0.00176557626779,0.0141399269612,-0.00582974229376,-0.00706028345609,0.03608741818366012,-0.06761633681894523,1.3625575027330392
1765470640.3870485,6.537717342376709,0.0988037070633,0.124473878081,-0.0303619959202,0.046127269505,0.028800318337,0.000973741030285,0.0083583307935,-0.00608950425704,-0.00653171348583,0.036092474028542064,-0.06761652407245937,1.3625561711524943
1765470640.407235,6.55790376663208,0.0996901841901,0.125050229947,-0.0305861314456,0.0458656370245,0.0286584705421,0.000301284481599,0.00362754644065,-0.00630205418196,-0.006089935218,0.036092474028542064,-0.06761652407245937,1.3625561711524943
1765470640.4271984,6.577867269515991,0.100578847438,0.125624358824,-0.0307814093655,0.0455869576709,0.0285157844013,-0.000267615886321,-0.000244131123767,-0.0064760052045,-0.00572031315133,0.036092474028542064,-0.06761652407245937,1.3625561711524943
1765470640.4471693,6.5978381633758545,0.101468037159,0.126196160652,-0.0309512864853,0.0452942044686,0.0283723996554,-0.00074654743773,-0.00341302873188,-0.00661838094992,-0.00541076931761,0.036092474028542064,-0.06761652407245937,1.3625561711524943
1765470640.4691393,6.619808197021484,0.102355356329,0.126764898902,-0.031098773079,0.0449899634638,0.0282285866318,-0.00114725347517,-0.00600638594272,-0.00673489817822,-0.00515135336506,0.036092474028542064,-0.06761652407245937,1.3625561711524943
1765470640.4879408,6.6386096477508545,0.103240113496,0.127330765419,-0.0312265657499,0.0446763448796,0.0280843861924,-0.00148026696533,-0.00812873153948,-0.00683025327445,-0.00493377671004,0.036092474028542064,-0.06761652407245937,1.3625561711524943
1765470640.507956,6.658624887466431,0.104122237009,0.127894229185,-0.0313370894563,0.0443549068087,0.0279397511956,-0.00175489237146,-0.00986585795189,-0.00690830081604,-0.00475113204589,0.036092474028542064,-0.06761652407245937,1.3625561711524943
1765470640.5283256,6.678994417190552,0.105000480087,0.128454927551,-0.0299661618147,0.0440271160419,0.0277948230709,0.00150447616737,-0.0112876673524,-0.0069721814453,-0.00432143643697,0.036092474028542064,-0.06761652407245937,1.3625561711524943
1765470640.5481937,6.698862552642822,0.105873668675,0.129012464349,-0.0287873444398,0.0436942788374,0.0276497468249,0.00415446993949,-0.012451268418,-0.00702446100418,-0.00401827122299,0.036092474028542064,-0.06761652407245937,1.3625561711524943
1765470640.568397,6.71906590461731,0.106742169913,0.129567354367,-0.0277761077514,0.043357116021,0.0275044299915,0.00628154380164,-0.0134036384911,-0.00706725014281,-0.00381172074243,0.036092474028542064,-0.06761652407245937,1.3625561711524943
1765470640.588845,6.739513874053955,0.107616374101,0.13014264589,-0.0268956205793,0.0431122077146,0.0275805114685,0.00828562696808,-0.0131238848508,-0.00465937011547,0.000367593132526,0.03632404836889206,-0.06763736330798924,1.362446448915583
1765470640.6088169,6.759485721588135,0.108485006292,0.130715813457,-0.0261418510577,0.0428684008757,0.0276655053798,0.00992089368725,-0.0128949015318,-0.00268847758326,0.00375766632378,0.03632404836889206,-0.06763736330798924,1.362446448915583
1765470640.6289554,6.7796242237091064,0.109347403027,0.131287176288,-0.0254980909155,0.0426257325111,0.0277577936969,0.0112397281269,-0.0127075195432,-0.00107565371663,0.00650552480254,0.03632404836889206,-0.06763736330798924,1.362446448915583
1765470640.649114,6.799782752990723,0.11020653867,0.131859288615,-0.0249488103053,0.0423831827039,0.0278559567444,0.0122885435447,-0.0125541227718,0.000244654472584,0.00873257418966,0.03632404836889206,-0.06763736330798924,1.362446448915583
1765470640.6692698,6.819938659667969,0.111058686493,0.132430217612,-0.024482257594,0.0421417549051,0.0279589744327,0.0131064682391,-0.0124286073148,0.00132498415664,0.0105357480501,0.03632404836889206,-0.06763736330798924,1.362446448915583
1765470640.6893349,6.840003728866577,0.111905209425,0.133001254408,-0.0240869241812,0.0419009552766,0.0280659012738,0.0137284349151,-0.0123259077602,0.00220893407169,0.0119949721511,0.03632404836889206,-0.06763736330798924,1.362446448915583
1765470640.7095299,6.860198736190796,0.112748712659,0.133574487049,-0.0237523630999,0.0416599459485,0.0281761615158,0.0141850715609,-0.0122418380436,0.00293253427681,0.0131758079243,0.03632404836889206,-0.06763736330798924,1.362446448915583
1765470640.7295487,6.880217552185059,0.113585582418,0.134147762356,-0.0234712939414,0.0414197328018,0.0282889625524,0.0145015406976,-0.0121730471308,0.0035246276086,0.014130537545,0.03632404836889206,-0.06763736330798924,1.362446448915583
1765470640.7497554,6.900424242019653,0.114417544987,0.134722463567,-0.023235849222,0.0411797611156,0.028403919337,0.0147008670808,-0.0121167533457,0.00400915635503,0.0149021902807,0.03632404836889206,-0.06763736330798924,1.362446448915583
1765470640.7696786,6.920347452163696,0.115245550434,0.135299437501,-0.0230394255639,0.040939711961,0.0285207397662,0.0148026554818,-0.0120706760192,0.00440575056588,0.0155257585003,0.03632404836889206,-0.06763736330798924,1.362446448915583
1765470640.7900476,6.940716505050659,0.116104980602,0.135855573092,-0.0228952503593,0.0410687122577,0.0284206904581,0.0144319218243,-0.00797304421821,0.00232679728869,0.0111502240837,0.03548609305427704,-0.06766529320992144,1.3619223388130555
1765470640.8101525,6.9608213901519775,0.116961610584,0.136413136803,-0.0218640102264,0.0412125614287,0.0283130829206,0.0161564940358,-0.00461928619264,0.000625251962832,0.0077367668245,0.03548609305427704,-0.06766529320992144,1.3619223388130555
1765470640.8300054,6.9806742668151855,0.117822154874,0.13697505324,-0.0209848320583,0.0413683040206,0.0281991953845,0.0174096309615,-0.00187154226287,-0.000768829185755,0.00490384186376,0.03548609305427704,-0.06766529320992144,1.3619223388130555
1765470640.8504052,7.0010740756988525,0.118675251711,0.137532200563,-0.0202435534135,0.0415347015295,0.0280801761074,0.0182612839537,0.00037569601701,-0.00190897637648,0.00255617884532,0.03548609305427704,-0.06766529320992144,1.3619223388130555
1765470640.8708513,7.021520137786865,0.119527962367,0.138088320282,-0.019620228549,0.0417092077824,0.0279570612561,0.0187767985954,0.00221390439242,-0.00284160027042,0.000609993707368,0.03548609305427704,-0.06766529320992144,1.3619223388130555
1765470640.8903372,7.041006088256836,0.120381823619,0.138643546611,-0.019099075367,0.0418903705832,0.0278305556533,0.0190116529763,0.00371793355782,-0.00360467672878,-0.00100395444581,0.03548609305427704,-0.06766529320992144,1.3619223388130555
1765470640.9108663,7.061535120010376,0.121237072118,0.139197302595,-0.0186666781842,0.0420769791489,0.0277012895735,0.0190137327221,0.00494865577062,-0.00422908958524,-0.00234251033364,0.03548609305427704,-0.06766529320992144,1.3619223388130555
1765470640.9309015,7.081570386886597,0.122094609916,0.139749586475,-0.0183109442221,0.0422680969479,0.0275697221926,0.0188242810409,0.00595587252802,-0.00474010586984,-0.00345269087864,0.03548609305427704,-0.06766529320992144,1.3619223388130555
1765470640.9511218,7.1017906665802,0.1229544435,0.140299915354,-0.0196712778499,0.0424628714765,0.0274363028298,0.0145601225583,0.00678017866909,-0.00515832157018,-0.00468407077194,0.03548609305427704,-0.06766529320992144,1.3619223388130555
1765470640.9718316,7.122500419616699,0.123818570586,0.140849178008,-0.0208575742876,0.0426609158577,0.0273011609896,0.0109036220515,0.00745498912131,-0.00550068991102,-0.00564345725833,0.03548609305427704,-0.06766529320992144,1.3619223388130555
1765470640.9919984,7.142667293548584,0.124694675525,0.141392277053,-0.0218833408973,0.0429152447144,0.0271025903737,0.00795183932349,0.00859283553271,-0.00646044065713,-0.00418401361466,0.03490731324799716,-0.06777124124822537,1.36149024092619
1765470641.0121326,7.162801504135132,0.125568741413,0.141929297524,-0.0227753165238,0.043172718697,0.0269012659021,0.0054727652827,0.00952348918618,-0.00724542844577,-0.00295337973569,0.03490731324799716,-0.06777124124822537,1.36149024092619
1765470641.032082,7.182750940322876,0.126446451433,0.142463306572,-0.0235486463432,0.0434335132572,0.0266971373978,0.00340230361753,0.0102848317604,-0.00788760571705,-0.00191465320985,0.03490731324799716,-0.06777124124822537,1.36149024092619
1765470641.0521214,7.202790260314941,0.127328430996,0.142994229584,-0.02421789468,0.0436970914976,0.0264906633555,0.00168491707265,0.0109077866561,-0.00841305574261,-0.00103709670158,0.03490731324799716,-0.06777124124822537,1.36149024092619
1765470641.0727859,7.223454713821411,0.128226175458,0.143528565535,-0.0247967590303,0.0439658368363,0.0262800346683,0.000269122751332,0.0114185331128,-0.00884386018864,-0.00029394775749,0.03490731324799716,-0.06777124124822537,1.36149024092619
1765470641.0944202,7.245089054107666,0.129134976349,0.14406295439,-0.0252969223282,0.0442382835664,0.0260663963884,-0.000885839118999,0.0118373080178,-0.00919708846579,0.000335860739448,0.03490731324799716,-0.06777124124822537,1.36149024092619
1765470641.1132114,7.263880252838135,0.130032340451,0.144583923914,-0.0248064942873,0.0445080050037,0.025854766215,0.000371311331223,0.0121793192703,-0.00948556813359,0.00104190978389,0.03490731324799716,-0.06777124124822537,1.36149024092619
1765470641.1332936,7.2839624881744385,0.130933987814,0.145100678376,-0.0243842063118,0.044778767536,0.0256422464463,0.00141114043567,0.0124587955679,-0.00972130081455,0.00160135225316,0.03490731324799716,-0.06777124124822537,1.36149024092619
1765470641.1534593,7.304128170013428,0.131839808877,0.145613007047,-0.0240211850037,0.0450502824932,0.0254290768153,0.0022642664801,0.0126872546657,-0.00991400150546,0.00204365436963,0.03490731324799716,-0.06777124124822537,1.36149024092619
1765470641.174826,7.325494766235352,0.132750834163,0.146121370891,-0.0237096252819,0.0453226304112,0.0252152059127,0.00295738474246,0.0128740900399,-0.0100715934159,0.00239251402954,0.03490731324799716,-0.06777124124822537,1.36149024092619
1765470641.1970859,7.347754716873169,0.133671344365,0.14660524288,-0.0234363041076,0.0455057497817,0.0247208610561,0.00362804624397,0.0119953745504,-0.0132460862227,0.00407558949416,0.0353145397069947,-0.06783677165579813,1.3614858467103914
1765470641.2142198,7.364888668060303,0.134583992133,0.147076782624,-0.0232027170091,0.0456821182283,0.0242180726539,0.00418477951448,0.0112772033001,-0.0158405886472,0.00544156188997,0.0353145397069947,-0.06783677165579813,1.3614858467103914
1765470641.2343488,7.38501763343811,0.135503032055,0.147542931654,-0.0230024797863,0.0458563460501,0.0237053520488,0.00464461119261,0.0106898135853,-0.0179626229651,0.00655058051665,0.0353145397069947,-0.06783677165579813,1.3614858467103914
1765470641.2545924,7.405261278152466,0.136427460601,0.148002353787,-0.0244840105116,0.0460286656488,0.0231844966182,0.00109635067614,0.0102092439871,-0.0196987534312,0.00713879096256,0.0353145397069947,-0.06783677165579813,1.3614858467103914
1765470641.274921,7.4255897998809814,0.137368954011,0.148460115165,-0.025761080506,0.0462019933769,0.0226515133884,-0.00179065086782,0.00981526009844,-0.0211220799066,0.00767331595989,0.0353145397069947,-0.06783677165579813,1.3614858467103914
1765470641.2939332,7.444602012634277,0.138297121252,0.148900692903,-0.0268552157245,0.0463701154401,0.0221210111381,-0.00410351454073,0.00949351723898,-0.0222844247214,0.00815554468286,0.0353145397069947,-0.06783677165579813,1.3614858467103914
1765470641.3151605,7.465829372406006,0.139229810416,0.149332627596,-0.0277904303976,0.0465372473374,0.0215861223632,-0.0059252791708,0.00923053843251,-0.0232344754937,0.00858855755886,0.0353145397069947,-0.06783677165579813,1.3614858467103914
1765470641.335264,7.48593282699585,0.140166528914,0.149755323127,-0.0285876496519,0.0467035035745,0.0210477328826,-0.00732944764017,0.00901548260256,-0.0240113972543,0.00897568931571,0.0353145397069947,-0.06783677165579813,1.3614858467103914
1765470641.3551908,7.505859613418579,0.141106832434,0.150168289352,-0.0292649548652,0.0468689787813,0.0205066162422,-0.00837932783635,0.00883956897563,-0.0246469118776,0.00932037345734,0.0353145397069947,-0.06783677165579813,1.3614858467103914
1765470641.3751729,7.52584171295166,0.142061857624,0.150608872286,-0.0298350098077,0.0469772726019,0.020253808051,-0.00898269600636,0.00803813305644,-0.0218717964113,0.0114291272748,0.03525039497542662,-0.06782254038872301,1.3614991625158417
1765470641.396283,7.546951770782471,0.143003129173,0.151032987972,-0.0315969897768,0.0470795319279,0.0200197263601,-0.0123840587855,0.00738331754909,-0.0196043803916,0.0129290428962,0.03525039497542662,-0.06782254038872301,1.3614991625158417
1765470641.4163883,7.567057132720947,0.143954816275,0.151452144356,-0.0331015576147,0.0471805752427,0.019790789169,-0.0149949548244,0.00684737423887,-0.0177485806532,0.0142188819674,0.03525039497542662,-0.06782254038872301,1.3614991625158417
1765470641.436573,7.587241888046265,0.144901783918,0.151860818642,-0.0343770583987,0.0472785530561,0.0195715145048,-0.0169353525854,0.00640934970029,-0.016231842206,0.015326095794,0.03525039497542662,-0.06782254038872301,1.3614991625158417
1765470641.4563673,7.607036113739014,0.145857344937,0.152265283228,-0.0354580895595,0.0473757583715,0.0193556666608,-0.0183069378954,0.0060508490828,-0.0149904695842,0.0162769890846,0.03525039497542662,-0.06782254038872301,1.3614991625158417
1765470641.4769244,7.627593278884888,0.146809389241,0.152661136424,-0.0363659540171,0.0474708860865,0.0191462581299,-0.0192024775329,0.00575776421639,-0.0139756107212,0.0170920379824,0.03525039497542662,-0.06782254038872301,1.3614991625158417
1765470641.4970293,7.647698163986206,0.147763791108,0.153051284876,-0.0371258699794,0.047564974379,0.0189404502072,-0.019698524959,0.00551806556803,-0.0131456112036,0.0177900801171,0.03525039497542662,-0.06782254038872301,1.3614991625158417
1765470641.51709,7.667758941650391,0.148720302905,0.153436016573,-0.0377578624508,0.047658192015,0.0187376400321,-0.0198626566323,0.00532198223682,-0.0124666375364,0.018387230737,0.03525039497542662,-0.06782254038872301,1.3614991625158417
1765470641.5371919,7.687860727310181,0.149679753,0.153815969406,-0.0373628709317,0.0477507925352,0.0185370633846,-0.0175747635637,0.00516152924266,-0.0119110402952,0.0190703518813,0.03525039497542662,-0.06782254038872301,1.3614991625158417
1765470641.5575168,7.70818567276001,0.150644486141,0.154192286614,-0.0370018960897,0.0478431508746,0.0183377218952,-0.015468485333,0.00503016020639,-0.0114561514693,0.0196148620459,0.03525039497542662,-0.06782254038872301,1.3614991625158417
1765470641.576962,7.727630853652954,0.151624486187,0.154576552287,-0.0366824994889,0.0480956860328,0.0182773697384,-0.013794490254,0.00669412902083,-0.00958093559038,0.0167883833506,0.034929417485044814,-0.06777514444369802,1.361408082406561
1765470641.5979166,7.74858546257019,0.152606763287,0.154956712515,-0.0363912953637,0.0483541850329,0.0182238692082,-0.0122867636535,0.00805559312987,-0.00804662852065,0.0144635555366,0.034929417485044814,-0.06777514444369802,1.361408082406561
1765470641.617977,7.768645763397217,0.15359192424,0.155333424107,-0.0361262355772,0.0486175472522,0.0181759636223,-0.0109290187282,0.00916960405701,-0.00679118973977,0.0125501983935,0.034929417485044814,-0.06777514444369802,1.361408082406561
1765470641.6386821,7.789350986480713,0.154580555027,0.155707257416,-0.0358853277991,0.0488848948133,0.0181326187414,-0.0097064523062,0.0100811965537,-0.00576386716616,0.0109744521946,0.034929417485044814,-0.06777514444369802,1.361408082406561
1765470641.6582508,7.808919668197632,0.155573663752,0.156078872451,-0.0356666928067,0.0491556306903,0.0180929412686,-0.00860544490703,0.0108272586115,-0.00492308973979,0.00967573751204,0.034929417485044814,-0.06777514444369802,1.361408082406561
1765470641.6783028,7.82897162437439,0.15657107215,0.156448436187,-0.0332689606062,0.0494290635647,0.0180563236015,-0.00238904247362,0.0114378532054,-0.00423497787846,0.0090190803336,0.034929417485044814,-0.06777514444369802,1.361408082406561
1765470641.6987476,7.849416494369507,0.157591090766,0.156822779223,-0.0311927205849,0.0497089795676,0.0180208102006,0.00276633136029,0.0119389211731,-0.00367029745821,0.00839579764871,0.034929417485044814,-0.06777514444369802,1.361408082406561
1765470641.718783,7.8694517612457275,0.158598272452,0.157189158383,-0.0294046820256,0.0499866008456,0.0179888269298,0.00698102757033,0.0123484296533,-0.00320880034481,0.00781211398077,0.034929417485044814,-0.06777514444369802,1.361408082406561
1765470641.738977,7.88964581489563,0.159610119648,0.157554100064,-0.0278686320047,0.0502656091067,0.0179585169631,0.0103917094416,0.0126832518491,-0.002831471219,0.00727125686749,0.034929417485044814,-0.06777514444369802,1.361408082406561
1765470641.7589126,7.909581422805786,0.160627080053,0.157917873495,-0.0265521095223,0.0505458151605,0.0179295609362,0.013114313742,0.0129571025878,-0.00252285410484,0.00677447471632,0.034929417485044814,-0.06777514444369802,1.361408082406561
1765470641.7785118,7.92918062210083,0.161622779273,0.158315248043,-0.0254199118825,0.0505634251063,0.018244461805,0.0153968189098,0.0102799620344,0.00150181648664,0.00815936410798,0.035451159870915766,-0.06766977897188255,1.3616373805764168
1765470641.7999158,7.950584650039673,0.16263912895,0.158719057885,-0.0244481289707,0.0505742246644,0.0185750869442,0.017189100259,0.00808424671037,0.00480273801679,0.00925550411758,0.035451159870915766,-0.06766977897188255,1.3616373805764168
1765470641.8222482,7.972917079925537,0.163652081304,0.159122325278,-0.0204960965703,0.0505752041837,0.0189181989865,0.0259835287118,0.00628735551292,0.00750408858627,0.0107095357772,0.035451159870915766,-0.06766977897188255,1.3616373805764168
1765470641.8402221,7.990890979766846,0.164661487286,0.159526271507,-0.0171129655205,0.0505686698078,0.0192705331321,0.0330183115398,0.0048185641849,0.00971219127833,0.0117577190621,0.035451159870915766,-0.06766977897188255,1.3616373805764168
1765470641.8614857,8.012154579162598,0.165669517163,0.159932775231,-0.0142257266446,0.0505565243128,0.019630162704,0.0385496033176,0.00361817739988,0.0115167888688,0.012494599661,0.035451159870915766,-0.06766977897188255,1.3616373805764168
1765470641.8805487,8.031217575073242,0.1666786952,0.160343716179,-0.0117674723764,0.0505400942827,0.0199961080953,0.0428034067571,0.00263672461207,0.0129922527428,0.0129953812067,0.035451159870915766,-0.06766977897188255,1.3616373805764168
1765470641.900681,8.051349878311157,0.167692094011,0.160761104115,-0.00967831002593,0.0505203017907,0.0203681514403,0.045975382992,0.00183362633199,0.0141995879445,0.0133189792951,0.035451159870915766,-0.06766977897188255,1.3616373805764168
1765470641.9209652,8.07163405418396,0.168703500485,0.161183096438,-0.00791416836954,0.0504974968908,0.0207437936661,0.0482310224347,0.00117674482536,0.0151871086327,0.0135108211043,0.035451159870915766,-0.06766977897188255,1.3616373805764168
1765470641.942829,8.09349775314331,0.169759895991,0.161629809675,-0.00639101673994,0.050473057578,0.0211368346695,0.0497178632685,0.000635856314009,0.0160002516267,0.013606328002,0.035451159870915766,-0.06766977897188255,1.3616373805764168
1765470641.963588,8.114256858825684,0.170786760029,0.16207092799,-0.00514143836611,0.0504458316872,0.0215240552283,0.0505436340192,0.00019392638173,0.016664625561,0.0136321327648,0.035451159870915766,-0.06766977897188255,1.3616373805764168
1765470641.9816632,8.13233208656311,0.171806023921,0.1624449706,-0.00781615091734,0.0504772413869,0.0212362100703,0.0417678667866,0.000495939884371,0.0098163438528,0.00904189259395,0.03607778503065459,-0.06751609793222817,1.3619838578342363
1765470642.002657,8.15332579612732,0.172825352195,0.162823323743,-0.0101468230942,0.0505096926788,0.0209246961592,0.0341983723542,0.000742514695889,0.00422515750966,0.00539174927059,0.03607778503065459,-0.06751609793222817,1.3619838578342363
1765470642.0227363,8.173405170440674,0.173843788307,0.163203196551,-0.0121784674038,0.0505429821242,0.0205936846569,0.0276778501997,0.000943952993862,-0.000342539627297,0.00249441932607,0.03607778503065459,-0.06751609793222817,1.3619838578342363
1765470642.0428038,8.193472623825073,0.174862765077,0.163583234499,-0.0139489254067,0.0505769758944,0.0202467725986,0.0220688547631,0.00110862456385,-0.00407653592464,0.00019937257976,0.03607778503065459,-0.06751609793222817,1.3619838578342363
1765470642.0637875,8.21445631980896,0.175882255193,0.163961834243,-0.015491589479,0.0506115496866,0.0198867384291,0.0172527783835,0.00124329629597,-0.00713027342857,-0.00161371178087,0.03607778503065459,-0.06751609793222817,1.3619838578342363
1765470642.084519,8.235187768936157,0.176903353432,0.164338120693,-0.0168352093872,0.0506466287648,0.0195157086729,0.0131259795375,0.0013534807437,-0.00962875158041,-0.00304165195447,0.03607778503065459,-0.06751609793222817,1.3619838578342363
1765470642.1038437,8.254512548446655,0.177959989681,0.164723840201,-0.0180051832652,0.0506830792038,0.0191281252074,0.00957607959543,0.00144409696078,-0.0116835119684,-0.00416917461619,0.03607778503065459,-0.06751609793222817,1.3619838578342363
1765470642.1242273,8.274896144866943,0.178981922621,0.165091350762,-0.0192118761026,0.0507188993569,0.0187401607095,0.00612525848924,0.00151803653211,-0.0133601224823,-0.00508103139517,0.03607778503065459,-0.06751609793222817,1.3619838578342363
1765470642.1443925,8.295061349868774,0.180003668812,0.165453243802,-0.0202564264761,0.0507549523326,0.0183465854386,0.00321859848171,0.00157842144281,-0.0147293754321,-0.00578208179796,0.03607778503065459,-0.06751609793222817,1.3619838578342363
1765470642.1644473,8.315116167068481,0.181025954393,0.165809208196,-0.021159869286,0.050791212777,0.0179482655587,0.00078105669878,0.0016277717538,-0.015848414247,-0.00631745894192,0.03607778503065459,-0.06751609793222817,1.3619838578342363
1765470642.1844518,8.335120677947998,0.182053793933,0.166179469423,-0.021936051234,0.050863054069,0.0177453726109,-0.00115482136041,0.00205669317901,-0.0145685078224,-0.00550655734405,0.03602149246311304,-0.06745243173741845,1.3621636212078165
1765470642.205592,8.356260776519775,0.183115198799,0.166555024803,-0.0226089019092,0.050937899649,0.0175381304165,-0.00274845743925,0.00240921538518,-0.0135165775387,-0.00481278238785,0.03602149246311304,-0.06745243173741845,1.3621636212078165
1765470642.2255945,8.37626338005066,0.184146204577,0.166914078465,-0.0231857845619,0.0510127092968,0.0173435471109,-0.00403173145722,0.00269692891512,-0.012658037084,-0.00422230126671,0.03602149246311304,-0.06745243173741845,1.3621636212078165
1765470642.2461627,8.396831512451172,0.185195954144,0.167273858511,-0.0236821463539,0.0510895184565,0.0171477722661,-0.00505634597733,0.00293254631666,-0.0119549520706,-0.00371818447093,0.03602149246311304,-0.06745243173741845,1.3621636212078165
1765470642.267898,8.418566942214966,0.186227370223,0.167622113232,-0.0253935139519,0.0511661009967,0.0169592395316,-0.0089146620492,0.00312480072456,-0.0113812627248,-0.00353316120251,0.03602149246311304,-0.06745243173741845,1.3621636212078165
1765470642.2869356,8.437604427337646,0.187276511588,0.167971105798,-0.0268644111036,0.0512443852864,0.0167691302672,-0.0120105821236,0.00328219988511,-0.0109115818346,-0.00332082774406,0.03602149246311304,-0.06745243173741845,1.3621636212078165
1765470642.3066187,8.457287549972534,0.188310151355,0.168310070573,-0.0281172604452,0.0513221785836,0.0165843634809,-0.0144455907024,0.00341067050706,-0.0105282240335,-0.0030950064584,0.03602149246311304,-0.06745243173741845,1.3621636212078165
1765470642.326829,8.477497816085815,0.189344664094,0.168644585079,-0.0291838225864,0.0514003805721,0.0164010186359,-0.0163210937103,0.0035156170615,-0.0102150623181,-0.00286606483522,0.03602149246311304,-0.06745243173741845,1.3621636212078165
1765470642.3468974,8.497566223144531,0.190380521308,0.168974922001,-0.0300891738994,0.0514789412432,0.0162187737234,-0.0177230681109,0.00360140161608,-0.00995908022891,-0.00264131713636,0.03602149246311304,-0.06745243173741845,1.3621636212078165
1765470642.3675795,8.518248319625854,0.191442994739,0.1693090367,-0.0308635519154,0.0515595822959,0.0160326314229,-0.0187262523551,0.00367180589227,-0.00974899306581,-0.00242500715959,0.03602149246311304,-0.06745243173741845,1.3621636212078165
1765470642.3877473,8.538416147232056,0.192497423419,0.169626726742,-0.0315017276292,0.0517821812863,0.0158036325521,-0.019255969738,0.00530375196931,-0.0101070495977,-0.00055436620263,0.036081267946017716,-0.06745463716769617,1.3622658865936756
1765470642.4080036,8.558672428131104,0.193553740895,0.169940283083,-0.0353430118309,0.0520104490339,0.0155734197814,-0.0273526182701,0.00663725405867,-0.0103996261357,0.000370925962266,0.036081267946017716,-0.06745463716769617,1.3622658865936756
1765470642.4281154,8.578784227371216,0.194611946175,0.170249420161,-0.0386256135007,0.0522432926704,0.0153423288433,-0.0337312511585,0.00772735188263,-0.0106387986499,0.0012637563767,0.036081267946017716,-0.06745463716769617,1.3622658865936756
1765470642.44823,8.598898887634277,0.195673050026,0.17055420946,-0.0414231452532,0.0524799397055,0.0151104332737,-0.0386483223505,0.00861881758256,-0.0108343903556,0.00210987475718,0.036081267946017716,-0.06745463716769617,1.3622658865936756
1765470642.4682767,8.618945598602295,0.196737636836,0.170854631747,-0.0437996055324,0.0527197429977,0.0148778388098,-0.04232534359,0.00934805888684,-0.0109943892772,0.00290035137176,0.036081267946017716,-0.06745463716769617,1.3622658865936756
1765470642.4883249,8.638993740081787,0.19780608744,0.171150640653,-0.0458106747072,0.0529621592227,0.014644651866,-0.0449537217744,0.00994471944732,-0.0111252993691,0.00363021033603,0.036081267946017716,-0.06745463716769617,1.3622658865936756
1765470642.5084903,8.659159183502197,0.198878702963,0.171442193825,-0.0475049080883,0.0532067398575,0.0144109623211,-0.0466989315466,0.010432972378,-0.0112324243247,0.00429739414215,0.036081267946017716,-0.06745463716769617,1.3622658865936756
1765470642.5286412,8.679310083389282,0.199955982166,0.171729322212,-0.048924898969,0.0534531661945,0.014176791059,-0.0477039437539,0.0108325663463,-0.0113200970931,0.004901996251,0.036081267946017716,-0.06745463716769617,1.3622658865936756
1765470642.5489535,8.699622392654419,0.201047392221,0.172014396599,-0.0455253503683,0.0537030446736,0.0139402375924,-0.0371868069174,0.0111600418842,-0.0113919467437,0.00631312541504,0.036081267946017716,-0.06745463716769617,1.3622658865936756
1765470642.5687773,8.719446182250977,0.202135041852,0.172292645038,-0.0425573602877,0.0539524320203,0.0137051778569,-0.0282074411401,0.0114279120593,-0.0114507187015,0.00734461975825,0.036081267946017716,-0.06745463716769617,1.3622658865936756
1765470642.5892458,8.739914655685425,0.203200994949,0.172589418738,-0.0399829744459,0.0539609688962,0.013704471144,-0.0207526214005,0.00899077611025,-0.00892237641848,0.0057868584902,0.036304532391528824,-0.06748256290843918,1.3621738743780134
1765470642.6096852,8.760354042053223,0.204280910534,0.172885048049,-0.0377466163021,0.0539622061264,0.0137114138021,-0.0144576882874,0.00699422517181,-0.0068511074112,0.00441894661749,0.036304532391528824,-0.06748256290843918,1.3621738743780134
1765470642.630126,8.780794858932495,0.205369887116,0.173179354622,-0.0358037647251,0.0539564185993,0.0137256900562,-0.00916958151582,0.00535824483826,-0.00515390284898,0.00321838669686,0.036304532391528824,-0.06748256290843918,1.3621738743780134
1765470642.650061,8.800729751586914,0.206445258695,0.173467451832,-0.0341208352132,0.0539428044323,0.0137479668323,-0.00477124216405,0.00402177323363,-0.00376741570233,0.00216738198022,0.036304532391528824,-0.06748256290843918,1.3621738743780134
1765470642.6707582,8.8214271068573,0.207531328737,0.173756249785,-0.0326669586249,0.0539250000051,0.0137746582527,-0.00113231811031,0.00292796569348,-0.00263267397638,0.00124716416107,0.036304532391528824,-0.06748256290843918,1.3621738743780134
1765470642.6906092,8.841278076171875,0.208609278498,0.174041536591,-0.0314144479261,0.0539026485601,0.0138059965841,0.00184600787183,0.00203414314344,-0.00170540139332,0.000443047610661,0.036304532391528824,-0.06748256290843918,1.3621738743780134
1765470642.7106357,8.861304521560669,0.209688545443,0.174326202902,-0.03033796788,0.0538771462274,0.0138406070993,0.0042586223306,0.00130331222702,-0.000947220173103,-0.000259087587521,0.036304532391528824,-0.06748256290843918,1.3621738743780134
1765470642.7308035,8.88147234916687,0.210767796409,0.174610301749,-0.0294150039677,0.0538490258213,0.0138779293217,0.00618682071667,0.000705607788544,-0.000327147499223,-0.000871546351151,0.036304532391528824,-0.06748256290843918,1.3621738743780134
1765470642.7508912,8.901560068130493,0.211848040617,0.174894415601,-0.0286256150982,0.0538187770099,0.0139174647181,0.00770143150611,0.000216608650092,0.000180151733951,-0.00140524550936,0.036304532391528824,-0.06748256290843918,1.3621738743780134
1765470642.7735152,8.924184083938599,0.21292832965,0.175178564035,-0.0279526355534,0.0537867678225,0.0139588258873,0.00886364395385,-0.00018350032613,0.000595234217461,-0.00186972687296,0.036304532391528824,-0.06748256290843918,1.3621738743780134
1765470642.7913036,8.941972494125366,0.214013621697,0.175445260506,-0.0273810995118,0.0538074756735,0.013827747946,0.00972520512074,8.49865075908e-05,-0.000978811046506,-0.00229071678539,0.03584476675765107,-0.06755335722035405,1.3620569616061589
1765470642.8117828,8.962451696395874,0.215110691767,0.175714622037,-0.0268954136977,0.0538292024724,0.0136905913149,0.0103332535666,0.000305047626675,-0.00226895312714,-0.00265574010302,0.03584476675765107,-0.06755335722035405,1.3620569616061589
1765470642.8319101,8.982578992843628,0.216196316528,0.175980153777,-0.0290581901878,0.0538516979417,0.0135490314688,0.00462464939138,0.000484982742537,-0.00332385035625,-0.00345596831586,0.03584476675765107,-0.06755335722035405,1.3620569616061589
1765470642.8520055,9.002674341201782,0.21728151333,0.17624423164,-0.0309258479749,0.053874832354,0.0134037312205,-0.000115231847344,0.000632142905858,-0.00418659939652,-0.00403321225074,0.03584476675765107,-0.06755335722035405,1.3620569616061589
1765470642.8720295,9.022698402404785,0.218367435011,0.176506769578,-0.0325360223738,0.0538985003872,0.0132552982988,-0.00402095476227,0.000752537150395,-0.00489242913051,-0.00443902551899,0.03584476675765107,-0.06755335722035405,1.3620569616061589
1765470642.8925464,9.043215274810791,0.219453360918,0.176767282537,-0.0339214379807,0.0539225981405,0.0131043487119,-0.00720887584891,0.000851043368238,-0.00546993694912,-0.0047139359407,0.03584476675765107,-0.06755335722035405,1.3620569616061589
1765470642.9123535,9.063022375106812,0.220539704593,0.177025622537,-0.0351108316123,0.0539470525298,0.0129513076045,-0.00978065981554,0.000931650978239,-0.00594251143257,-0.00488989133527,0.03584476675765107,-0.06755335722035405,1.3620569616061589
1765470642.9325361,9.083204984664917,0.221626512477,0.177281595756,-0.0361293521216,0.0539718001101,0.0127965468183,-0.0118247788546,0.000997617667537,-0.00632925127166,-0.00499194573339,0.03584476675765107,-0.06755335722035405,1.3620569616061589
1765470642.9529085,9.103577375411987,0.222722720641,0.177537127123,-0.0370014353568,0.0539969591449,0.0126392937282,-0.0134200214165,0.00105167127759,-0.00664614885551,-0.00503980526315,0.03584476675765107,-0.06755335722035405,1.3620569616061589
1765470642.9752707,9.12593960762024,0.223810589775,0.177787900224,-0.0377416067002,0.0540221509852,0.0124819263362,-0.0146297072431,0.00109588144028,-0.00690533771864,-0.00504837884882,0.03584476675765107,-0.06755335722035405,1.3620569616061589
1765470642.9931154,9.143784284591675,0.224910276957,0.178034205418,-0.0357967366862,0.0541659279603,0.0123083732835,-0.00931844138242,0.00243583509249,-0.007286062133,-0.0033498720667,0.03577908654726699,-0.06759883485715636,1.3616806569441307
1765470643.0123518,9.163020610809326,0.226011346715,0.178277677233,-0.0341141791231,0.0543145602789,0.0121333856454,-0.00487262970841,0.00353221627449,-0.00759757968641,-0.0020293924913,0.03577908654726699,-0.06759883485715636,1.3616806569441307
1765470643.0333505,9.184019327163696,0.227113673674,0.178518053645,-0.0326607183011,0.0544671548435,0.0119572879257,-0.00117477918067,0.00442937129223,-0.00785249060677,-0.00100867771579,0.03577908654726699,-0.06759883485715636,1.3616806569441307
1765470643.0535557,9.204224586486816,0.22822502472,0.178756825793,-0.0314061884935,0.0546236563195,0.0117792028806,0.00188070030595,0.00516427699073,-0.00806130121839,-0.000223926170711,0.03577908654726699,-0.06759883485715636,1.3616806569441307
1765470643.0743756,9.22504448890686,0.229331921894,0.178990904407,-0.0303267723631,0.0547822907023,0.0116013010132,0.00437899593604,0.00576544912243,-0.00823211377403,0.000373496232127,0.03577908654726699,-0.06759883485715636,1.3616806569441307
1765470643.0942128,9.244881629943848,0.230440662771,0.179221551433,-0.0294002135746,0.0549430542357,0.0114228507812,0.00639873390086,0.00625727014092,-0.00837185612178,0.000824058820304,0.03577908654726699,-0.06759883485715636,1.3616806569441307
1765470643.1142938,9.264962673187256,0.231564111632,0.179451297814,-0.0286044908769,0.0551070430264,0.0112420252186,0.00801081823457,0.00666034366804,-0.00848638242073,0.00116074668747,0.03577908654726699,-0.06759883485715636,1.3616806569441307
1765470643.134318,9.284986972808838,0.232677638164,0.179674991885,-0.0270089576709,0.0552710354881,0.0110627109953,0.0114510114977,0.00698986049924,-0.00858000886995,0.00158108221436,0.03577908654726699,-0.06759883485715636,1.3616806569441307
1765470643.1550813,9.305750131607056,0.233794536902,0.17989532324,-0.0256435418395,0.0554362800643,0.0108829749763,0.0141827131673,0.00725936981035,-0.00865658523098,0.00186848612838,0.03577908654726699,-0.06759883485715636,1.3616806569441307
1765470643.1748948,9.325563669204712,0.234964069966,0.180141143005,-0.0244509081774,0.0554987175582,0.0108642182027,0.0164776941541,0.00624997894283,-0.00683989561402,0.00399438434187,0.03545753897396434,-0.06769529122288767,1.3611971600482269
1765470643.1957977,9.346466541290283,0.236074739413,0.180372008897,-0.0234518516203,0.055549700846,0.0108611888367,0.0182522835977,0.00542783363185,-0.00536020831138,0.00568384855052,0.03545753897396434,-0.06769529122288767,1.3611971600482269
1765470643.2179077,9.368576526641846,0.237188027215,0.180600688589,-0.0226054044818,0.0555979111731,0.0108631796437,0.0195905431827,0.0047570830581,-0.00415299944699,0.00702689936076,0.03545753897396434,-0.06769529122288767,1.3611971600482269
1765470643.2361884,9.386857271194458,0.238303570664,0.180827677846,-0.0218903152944,0.0556438251735,0.0108693264768,0.02056168276,0.004209249783,-0.00316701566734,0.00809417012841,0.03545753897396434,-0.06769529122288767,1.3611971600482269
1765470643.2565184,9.407187223434448,0.239436331181,0.181056354888,-0.0212833881093,0.0556889110545,0.0108781893621,0.0212253767483,0.00376058638055,-0.002359516639,0.00894318338223,0.03545753897396434,-0.06769529122288767,1.3611971600482269
1765470643.2784545,9.429123401641846,0.240556062397,0.18128118373,-0.0211476087096,0.0557313283881,0.0108906998799,0.0207553788351,0.00339409373598,-0.00169990755842,0.00954627799251,0.03545753897396434,-0.06769529122288767,1.3611971600482269
1765470643.2967875,9.447456359863281,0.241675740676,0.181505006555,-0.0210444424059,0.0557723741249,0.0109055644084,0.0202354131148,0.00309459561377,-0.00116087441831,0.0100349535872,0.03545753897396434,-0.06769529122288767,1.3611971600482269
1765470643.3170466,9.467715501785278,0.242796621128,0.181728319057,-0.0209684074577,0.0558123668396,0.0109223188977,0.0196790678268,0.00284972091773,-0.000720151867634,0.0104314376201,0.03545753897396434,-0.06769529122288767,1.3611971600482269
1765470643.3370397,9.487708568572998,0.243918601264,0.18195130538,-0.0209152325312,0.0558514925883,0.0109406284867,0.0190976021043,0.00264943862954,-0.000359686199555,0.0107535887118,0.03545753897396434,-0.06769529122288767,1.3611971600482269
1765470643.357179,9.507847785949707,0.245042277012,0.182174249038,-0.0208810732266,0.0558899358374,0.0109602147819,0.0185004279926,0.00248557572313,-6.47676994399e-05,0.011015796213,0.03545753897396434,-0.06769529122288767,1.3611971600482269
1765470643.376699,9.52736783027649,0.246159324983,0.182404171991,-0.020859705337,0.0558498161549,0.0110498289608,0.0179642237103,0.00149395410446,0.00093496731451,0.0120873333611,0.035043525615376304,-0.06772012520005266,1.3608714554469101
1765470643.3973932,9.548062086105347,0.247278034234,0.182634631692,-0.0208513052746,0.0558061452253,0.011143067676,0.0174293930441,0.000682371655658,0.00175319008769,0.0129640450279,0.035043525615376304,-0.06772012520005266,1.3608714554469101
1765470643.4179938,9.568662643432617,0.248399474552,0.182866257026,-0.021587001463,0.0557595359024,0.0112393747529,0.015157438499,1.79499918097e-05,0.00242304801422,0.0135434067357,0.035043525615376304,-0.06772012520005266,1.3608714554469101
1765470643.4377546,9.588423490524292,0.249517678571,0.183098182239,-0.0222292535208,0.0557104905339,0.0113379946315,0.0132215904135,-0.000525651567876,0.00297109729292,0.0140440065409,0.035043525615376304,-0.06772012520005266,1.3608714554469101
1765470643.458106,9.608774900436401,0.250642806583,0.183332750166,-0.0227878609448,0.0556593749464,0.0114390136272,0.0115781222622,-0.000970869299163,0.00341995777197,0.0144769461058,0.035043525615376304,-0.06772012520005266,1.3608714554469101
1765470643.4782715,9.628940343856812,0.251765718622,0.18356833106,-0.0232743497712,0.0556066102253,0.0115416149315,0.0101885372615,-0.00133525685585,0.00378732672825,0.0148513642898,0.035043525615376304,-0.06772012520005266,1.3608714554469101
1765470643.4982505,9.648919343948364,0.252883181763,0.183804421226,-0.0236972606953,0.0555526209214,0.0116452349109,0.00902017809816,-0.00163324514526,0.00408775314197,0.0151751127678,0.035043525615376304,-0.06772012520005266,1.3608714554469101
1765470643.518435,9.669103860855103,0.253999491927,0.184042051586,-0.0240636189546,0.0554975733632,0.0117498996866,0.00804425936952,-0.00187697772911,0.00433347993285,0.0154551002872,0.035043525615376304,-0.06772012520005266,1.3608714554469101
1765470643.5387726,9.689441442489624,0.255124621825,0.184283475143,-0.0243798435924,0.0554413007806,0.0118562208882,0.00723528294242,-0.00207662728245,0.0045347630082,0.015697406715,0.035043525615376304,-0.06772012520005266,1.3608714554469101
1765470643.5603783,9.711047172546387,0.256238823919,0.184524589407,-0.0252044548159,0.0553846585456,0.0119624706897,0.00525993152074,-0.00223985548545,0.00469932673567,0.0158029826659,0.035043525615376304,-0.06772012520005266,1.3608714554469101
1765470643.5783346,9.729003429412842,0.257355618335,0.184755859517,-0.0259212904092,0.0553500780507,0.0119505676041,0.00348474552446,-0.00212367485309,0.0035264032945,0.0138042051491,0.035132500162920174,-0.06769152118546952,1.3607536105686742
1765470643.6007144,9.751383304595947,0.258470754082,0.184988439907,-0.0265376611128,0.0553159473183,0.0119343801112,0.00201968422704,-0.00202863461186,0.00256690665099,0.012194481333,0.035132500162920174,-0.06769152118546952,1.3607536105686742
1765470643.6200876,9.770756483078003,0.259594618489,0.185224163851,-0.0270671691725,0.0552818175817,0.0119150861458,0.000821384982576,-0.00195077642342,0.00178087465536,0.0108973958977,0.035132500162920174,-0.06769152118546952,1.3607536105686742
1765470643.6397462,9.790415048599243,0.260708508592,0.185458665528,-0.0275208239361,0.0552483039429,0.0118925448116,-0.000149185708776,-0.0018871098518,0.00113811679841,0.00985545350771,0.035132500162920174,-0.06769152118546952,1.3607536105686742
1765470643.6599016,9.810570478439331,0.261821406251,0.185693608835,-0.027908421252,0.0552150270052,0.0118676864236,-0.000923426159981,-0.0018350352834,0.000612388191893,0.0090191870862,0.035132500162920174,-0.06769152118546952,1.3607536105686742
1765470643.6815882,9.83225703239441,0.262933741412,0.185928862565,-0.0282387713842,0.0551819316983,0.0118409345541,-0.0015302224156,-0.00179243248603,0.000182283632493,0.00834861873485,0.035132500162920174,-0.06769152118546952,1.3607536105686742
1765470643.7002008,9.85086965560913,0.26404457163,0.186164041875,-0.0332878023551,0.0551490153669,0.0118126277885,-0.0133206565096,-0.00175757803634,-0.000169596024603,0.00691248308613,0.035132500162920174,-0.06769152118546952,1.3607536105686742
1765470643.7208362,9.87150502204895,0.265169182142,0.186402267181,-0.0376357075858,0.0551157675022,0.0117829572492,-0.0228809980162,-0.00172900345697,-0.000458076068791,0.00591281998228,0.035132500162920174,-0.06769152118546952,1.3607536105686742
1765470643.7407243,9.891393184661865,0.266278206947,0.186637132963,-0.0413545686971,0.0550830954045,0.0117523086329,-0.0305071647115,-0.00170564663597,-0.000693879251336,0.00524990726301,0.035132500162920174,-0.06769152118546952,1.3607536105686742
1765470643.7619479,9.912616729736328,0.267388088663,0.186872058464,-0.0445313196162,0.0550504589397,0.0117207963095,-0.0364835430593,-0.00168654237362,-0.000886749927721,0.00483894608511,0.035132500162920174,-0.06769152118546952,1.3607536105686742
1765470643.7803822,9.931051015853882,0.268513106001,0.187109076982,-0.0472373469862,0.0551739286415,0.0117126630992,-0.041080291425,4.60261835009e-05,-0.000779600950009,0.0043103892156,0.03531617505435158,-0.06763844105599288,1.3608039443132767
1765470643.8044188,9.955087661743164,0.269638467049,0.187345858211,-0.0495337318489,0.055303685822,0.0117049131352,-0.0444869412393,0.00146365987659,-0.000691928805459,0.00397259848927,0.03531617505435158,-0.06763844105599288,1.3608039443132767
1765470643.8222153,9.972884178161621,0.270791243575,0.18758802677,-0.0514958292308,0.0554396898902,0.0116971700611,-0.0468852936475,0.00262780677655,-0.000619933299292,0.00377551538139,0.03531617505435158,-0.06763844105599288,1.3608039443132767
1765470643.843483,9.994151830673218,0.271916792662,0.187823965387,-0.053124756345,0.0555790286077,0.0116900326186,-0.0484348053154,0.00357836755758,-0.000561146814035,0.00368237111772,0.03531617505435158,-0.06763844105599288,1.3608039443132767
1765470643.8623772,10.013046026229858,0.273043347029,0.188059590035,-0.0480553646106,0.0557216912349,0.0116831063364,-0.0340061136183,0.00435509126475,-0.000513111109563,0.00487670252392,0.03531617505435158,-0.06763844105599288,1.3608039443132767
1765470643.882166,10.032834768295288,0.274172308055,0.188295146488,-0.0436624739177,0.0558671595701,0.0116763440565,-0.0218641539123,0.00499017453268,-0.000473835017058,0.00567121458278,0.03531617505435158,-0.06763844105599288,1.3608039443132767
1765470643.9022436,10.052912473678589,0.275303759084,0.188530611936,-0.0398597820449,0.056014943595,0.0116697180857,-0.0116981543844,0.00550964553604,-0.000441708849968,0.00616387904998,0.03531617505435158,-0.06763844105599288,1.3608039443132767
1765470643.9222565,10.072925329208374,0.276436795589,0.188765766005,-0.0365728588833,0.0561645316395,0.0116632124506,-0.00324001656719,0.0059345909143,-0.000415428526066,0.0064310826066,0.03531617505435158,-0.06763844105599288,1.3608039443132767
1765470643.9432847,10.093953609466553,0.277574006023,0.189001120095,-0.0337360753619,0.0563158420715,0.0116567885236,0.00374714879931,0.00628234948666,-0.000393921743338,0.00653278200251,0.03531617505435158,-0.06763844105599288,1.3608039443132767
1765470643.9627502,10.11341905593872,0.278712048923,0.189235960338,-0.0312932316091,0.0564682245366,0.0116504545873,0.00946507593973,0.00656687248427,-0.000376325701782,0.00651514115174,0.03531617505435158,-0.06763844105599288,1.3608039443132767
1765470643.9821737,10.132842540740967,0.279839677989,0.189461902933,-0.0291956383385,0.0564844740168,0.0115559738724,0.0140575760849,0.00528940493715,-0.00133250722506,0.00596894893234,0.035178768425671095,-0.06762159656209814,1.3608651970183485
1765470644.003055,10.153723955154419,0.280968927369,0.189687225176,-0.0301489084008,0.0564960315998,0.0114580355328,0.011180484162,0.00424406649135,-0.00211494064946,0.00492916418499,0.035178768425671095,-0.06762159656209814,1.3608651970183485
1765470644.0233068,10.173975706100464,0.282117957429,0.189915344675,-0.0309778300248,0.0565049685771,0.0113564488909,0.00872256851052,0.00338662123057,-0.00275673645667,0.0041098975013,0.035178768425671095,-0.06762159656209814,1.3608651970183485
1765470644.0438914,10.194560289382935,0.283249679379,0.190138581872,-0.0317002897133,0.0565094571344,0.0112532862676,0.00663689905633,0.0026858950075,-0.00328122842431,0.0034703941949,0.035178768425671095,-0.06762159656209814,1.3608651970183485
1765470644.0637777,10.214446544647217,0.284382549436,0.190360519235,-0.032326681706,0.0565114498903,0.0111482530195,0.00487483963042,0.0021129532813,-0.0037100739897,0.00297344291712,0.035178768425671095,-0.06762159656209814,1.3608651970183485
1765470644.0838814,10.23455023765564,0.285517554591,0.190581217218,-0.0328692498056,0.0565114325723,0.0110415979051,0.0033925746172,0.00164425963679,-0.00406089010551,0.00258930322544,0.035178768425671095,-0.06762159656209814,1.3608651970183485
1765470644.1074355,10.25810432434082,0.286651885893,0.190800016903,-0.0333386530814,0.0565096851781,0.0109337752561,0.0021525516832,0.00126086247961,-0.00434786199658,0.00229444708869,0.035178768425671095,-0.06762159656209814,1.3608651970183485
1765470644.1280699,10.278738737106323,0.287908343988,0.191040356828,-0.0337476236379,0.0565088222667,0.0108152285269,0.00110776272078,0.000942218888069,-0.00458636599258,0.00206483501603,0.035178768425671095,-0.06762159656209814,1.3608651970183485
1765470644.1466465,10.2973153591156,0.289043495759,0.19125532116,-0.029833469302,0.0565042346478,0.0107052913308,0.010373958037,0.000683743440626,-0.00477983427099,0.00270631237553,0.035178768425671095,-0.06762159656209814,1.3608651970183485
1765470644.16655,10.317218780517578,0.290179011667,0.191468376691,-0.0264876971991,0.0564988118773,0.0105947227176,0.0178524663893,0.00047344976272,-0.00493723860563,0.00308543189915,0.035178768425671095,-0.06762159656209814,1.3608651970183485
1765470644.1868043,10.337473154067993,0.291311908677,0.191699949385,-0.0236319227741,0.0564542656111,0.0106842779337,0.0237651452825,-0.000119165322805,-0.00286606336042,0.00259920531169,0.03544362811845788,-0.0675173046770971,1.3609608045014823
1765470644.208788,10.359456777572632,0.292444254075,0.191930134657,-0.0211971433151,0.0564077220549,0.0107808449341,0.028394587335,-0.00060290501721,-0.00117540494715,0.00210033323082,0.03544362811845788,-0.0675173046770971,1.3609608045014823
1765470644.227535,10.378203868865967,0.293595518756,0.19216343579,-0.0191142809847,0.0563592346636,0.0108830911413,0.0319426535473,-0.000999103973148,0.000209300723958,0.00160556527066,0.03544362811845788,-0.0675173046770971,1.3609608045014823
1765470644.2477093,10.398378133773804,0.29472941367,0.192393497023,-0.0173565313034,0.056309565697,0.0109904553731,0.0345663309051,-0.001322630949,0.00134001960019,0.00112800666704,0.03544362811845788,-0.0675173046770971,1.3609608045014823
1765470644.268283,10.418951749801636,0.295881902555,0.192627810171,-0.0158607160885,0.0562582625551,0.0111024157753,0.0364122457125,-0.0015876585084,0.00226628444516,0.000674762671076,0.03544362811845788,-0.0675173046770971,1.3609608045014823
1765470644.2884037,10.439072608947754,0.297012217775,0.192858775783,-0.0160885811462,0.0562065718217,0.011216986904,0.0341081030106,-0.00180395730271,0.0030222434467,-2.62756773513e-05,0.03544362811845788,-0.0675173046770971,1.3609608045014823
1765470644.308459,10.45912790298462,0.298141131988,0.19309078319,-0.0163121911221,0.0561541654538,0.0113340990719,0.0319202058655,-0.00198063694313,0.00363973447333,-0.000589387435357,0.03544362811845788,-0.0675173046770971,1.3609608045014823
1765470644.3284938,10.479162693023682,0.2992696693,0.193324312771,-0.0165304103548,0.0561011361471,0.0114533641339,0.0298449652729,-0.00212506024569,0.00414449038724,-0.00104050228025,0.03544362811845788,-0.0675173046770971,1.3609608045014823
1765470644.3487294,10.499398231506348,0.300397554035,0.193559535147,-0.0167428482059,0.0560475957691,0.0115744036387,0.0278790285927,-0.00224316947198,0.0045572792475,-0.00140053192271,0.03544362811845788,-0.0675173046770971,1.3609608045014823
1765470644.3686492,10.519318103790283,0.301525750738,0.19379683647,-0.0169487121046,0.0559935898579,0.0116969989522,0.0260185233136,-0.00233980058762,0.00489500263577,-0.0016865311899,0.03544362811845788,-0.0675173046770971,1.3609608045014823
1765470644.38905,10.539718866348267,0.302669122055,0.194036434843,-0.0171463671865,0.0561073512516,0.0118257978116,0.0243034578003,-0.000572206578534,0.00522710684089,-0.00137985174936,0.035908611883596515,-0.06737011093141058,1.3610721246350477
1765470644.4095733,10.560242176055908,0.303820629537,0.194279934525,-0.0173346892641,0.0562274731716,0.0119565942686,0.022685644846,0.000875702476479,0.00549914707372,-0.00112095140961,0.035908611883596515,-0.06737011093141058,1.3610721246350477
1765470644.4293797,10.580048561096191,0.304963519564,0.194523772969,-0.0189869507812,0.0563528079345,0.0120875243455,0.0176791933839,0.00205973495046,0.00572160888429,-0.00117874929548,0.035908611883596515,-0.06737011093141058,1.3610721246350477
1765470644.449546,10.600214958190918,0.306107063242,0.19476989228,-0.0204247210049,0.0564823479675,0.0122192330823,0.0134208922475,0.00302824896758,0.00590357803339,-0.00116645178836,0.035908611883596515,-0.06737011093141058,1.3610721246350477
1765470644.4696014,10.620270252227783,0.30725177282,0.195018391283,-0.0216745179634,0.0566153446521,0.0123515899998,0.00981246583123,0.00382063386745,0.00605245518276,-0.00110469842765,0.035908611883596515,-0.06737011093141058,1.3610721246350477
1765470644.4897006,10.640369415283203,0.308397600194,0.1952692487,-0.0227595784698,0.0567511516009,0.0124844380392,0.00676823871918,0.00446897590929,0.00617426885566,-0.00100933713446,0.035908611883596515,-0.06737011093141058,1.3610721246350477
1765470644.5096974,10.660366296768188,0.309545477445,0.195522659966,-0.0237002680079,0.056889306743,0.0126177527061,0.00421287744159,0.00499954236388,0.00627395427536,-0.000892482250416,0.035908611883596515,-0.06737011093141058,1.3610721246350477
1765470644.5302868,10.680955648422241,0.310719202134,0.195783940197,-0.0245159740174,0.0570315863226,0.0127540731551,0.00207312673704,0.00543509378593,0.00635578780618,-0.000763461800657,0.035908611883596515,-0.06737011093141058,1.3610721246350477
1765470644.5504684,10.70113730430603,0.311871790797,0.196042620535,-0.025221209016,0.0571733590243,0.0128881120223,0.000303523565833,0.00579097706835,0.00642265289738,-0.000628661942706,0.035908611883596515,-0.06737011093141058,1.3610721246350477
1765470644.571066,10.721734762191772,0.313027091843,0.196303987858,-0.0252779033938,0.0573164376771,0.0130224318703,0.000159930614772,0.00608194036788,0.00647732050476,-0.000389306914326,0.035908611883596515,-0.06737011093141058,1.3610721246350477
1765470644.5907245,10.741393327713013,0.314161704742,0.196532526663,-0.0253247886264,0.0572399515604,0.0128078902881,8.83602263488e-05,0.003894103933,0.00268325894414,0.000372107562969,0.03590251574141375,-0.06740282620092652,1.361182113188068
1765470644.6110995,10.761768341064453,0.315306148579,0.196764127606,-0.0253648486204,0.0571560324875,0.0125798785184,4.15535680707e-05,0.00210254896915,-0.000423586573996,0.000997297304683,0.03590251574141375,-0.06740282620092652,1.361182113188068
1765470644.6310434,10.781712293624878,0.316447411609,0.196994757035,-0.0253988153766,0.0570652648084,0.0123402822213,1.5665965236e-05,0.000636836794508,-0.00296536809481,0.00151021813872,0.03590251574141375,-0.06740282620092652,1.361182113188068
