timestamp_abs,timestamp_rel,x,y,z,vx,vy,vz,ax,ay,az,roll,pitch,yaw
1765469929.568646,1.0046136379241943,-1.68565996342e-12,3.99030360923e-12,-0.0303797396481,-2.31808863188e-07,5.48739225882e-07,-4.30347288278e-07,-0.0159391964335,0.0377313541503,0.000789462235833,0.04863083617771687,0.07762389698421773,1.1853720690878875
1765469929.5813305,1.0172982215881348,-3.97445757141e-06,9.78884899712e-06,-0.0305354702406,-0.000394068517564,0.000970566962572,-0.000310832298216,-0.019753498454,0.0487439469325,-0.000674968455157,0.04308381284459648,0.07801814469409034,1.1838925499442938
1765469929.6024997,1.0384674072265625,-1.71193119406e-05,4.26896893231e-05,-0.0305959037012,-0.000852249357335,0.00212642770962,-0.000607000870727,-0.0214392946933,0.0536111513115,-0.0013225982175,0.04308381284459648,0.07801814469409034,1.1838925499442938
1765469929.6217766,1.0577442646026611,-4.00568348739e-05,0.000100492918098,-0.0306341188924,-0.00133234299442,0.0033454519871,-0.000835069683215,-0.0224066435605,0.0564040657415,-0.00169424822707,0.04308381284459648,0.07801814469409034,1.1838925499442938
1765469929.6418269,1.0777945518493652,-7.29057096715e-05,0.000183550756846,-0.0333595439908,-0.0018220952763,0.00459245542498,-0.0237392858211,-0.0230411773256,0.0582360816448,-0.00204056289134,0.04308381284459648,0.07801814469409034,1.1838925499442938
1765469929.6618419,1.0978095531463623,-0.000115718205814,0.000292011168606,-0.0354951754976,-0.00231719972188,0.00585491944976,-0.0381119188394,-0.0234914563474,0.0595361201522,-0.00226294078596,0.04308381284459648,0.07801814469409034,1.1838925499442938
1765469929.6820276,1.117995262145996,-0.000168521237627,0.000425948992356,-0.0371186118029,-0.00281561716469,0.00712692894779,-0.0452856540158,-0.0238270848805,0.0605051415724,-0.00240032327807,0.04308381284459648,0.07801814469409034,1.1838925499442938
1765469929.702379,1.1383466720581055,-0.000231342622311,0.000585439443866,-0.0383022110692,-0.00331630301868,0.00840544034234,-0.0474486911689,-0.0240853111088,0.0612506882762,-0.0024808845224,0.04308381284459648,0.07801814469409034,1.1838925499442938
1765469929.722726,1.158693790435791,-0.000304149012722,0.000770402811764,-0.0391345192712,-0.00381825019332,0.00968766651489,-0.0466014805452,-0.024288130123,0.061836264143,-0.00252483168793,0.04308381284459648,0.07801814469409034,1.1838925499442938
1765469929.7424374,1.1784050464630127,-0.00038698062301,0.000980946359821,-0.0397035540341,-0.00432125698611,0.0109729520003,-0.044174457696,-0.0244496301733,0.0623025445473,-0.00254587550175,0.04308381284459648,0.07801814469409034,1.1838925499442938
1765469929.7626812,1.1986489295959473,-0.000479857813446,0.00121712767719,-0.0400824571455,-0.00482506802889,0.0122605535755,-0.0410589907935,-0.0245794061204,0.0626772316199,-0.00255292897117,0.04308381284459648,0.07801814469409034,1.1838925499442938
1765469929.7828038,1.2187714576721191,-0.000586290238572,0.00153287859107,-0.038280550255,-0.00537226664422,0.0142241127247,-0.0259251407839,-0.0251667446004,0.070679936595,-0.000863454153027,0.04622928073046748,0.07903718664045235,1.1818637538258716
1765469929.8028793,1.238847017288208,-0.000703105347339,0.00188127320693,-0.0368482968165,-0.00592128846012,0.0162208862502,-0.0154332247699,-0.0256434412054,0.0771751049228,0.000475792199862,0.04622928073046748,0.07903718664045235,1.1818637538258716
1765469929.8229556,1.2589232921600342,-0.000830551089138,0.00226399485506,-0.0357102755085,-0.00647234872161,0.0182452396428,-0.00813862985834,-0.0260314087911,0.0824613074004,0.0015398053231,0.04622928073046748,0.07903718664045235,1.1818637538258716
1765469929.8434896,1.2794573307037354,-0.000968611516473,0.00268194739053,-0.0348040563448,-0.00702463166717,0.0202901467886,-0.00305582214498,-0.026347711507,0.0867710494055,0.00238599416318,0.04622928073046748,0.07903718664045235,1.1818637538258716
1765469929.8650956,1.3010632991790771,-0.00111755276307,0.00313675466611,-0.0340801523537,-0.00757853613585,0.022353513176,0.000488476559765,-0.0266059453401,0.0902895813106,0.00305925921182,0.04622928073046748,0.07903718664045235,1.1818637538258716
1765469929.883746,1.3197135925292969,-0.00127747040476,0.00362947869042,-0.0334998202482,-0.00813382527652,0.0244320467164,0.00295411856927,-0.0268169627405,0.0931647717807,0.00359477482482,0.04622928073046748,0.07903718664045235,1.1818637538258716
1765469929.9066913,1.3426589965820312,-0.00144826335845,0.00416049003346,-0.0330331850238,-0.00868972860839,0.0265210906658,0.00465738719119,-0.0269894708907,0.0955152594108,0.00402026632413,0.04622928073046748,0.07903718664045235,1.1818637538258716
1765469929.924815,1.3607826232910156,-0.00162997954006,0.00473050140066,-0.0326570002333,-0.0092461033716,0.0286185051567,0.00581824473783,-0.0271305405095,0.0974373853713,0.00435785579271,0.04622928073046748,0.07903718664045235,1.1818637538258716
1765469929.9442694,1.380237102508545,-0.00182273783168,0.0053403675342,-0.032580549046,-0.00980305434745,0.0307233813359,0.00577128697038,-0.0272459332913,0.0990096548897,0.00460027702413,0.04622928073046748,0.07903718664045235,1.1818637538258716
1765469929.964356,1.4003236293792725,-0.00202657291313,0.0059906149097,-0.0325206052847,-0.0103604612514,0.0328342749932,0.00567881920245,-0.0273403397508,0.100295977971,0.00479656453639,0.04622928073046748,0.07903718664045235,1.1818637538258716
1765469929.9860914,1.4220590591430664,-0.00225661004063,0.00658302442923,-0.032480173833,-0.0110727945419,0.0339341926443,0.0053942219931,-0.0291230072791,0.090118676157,0.00271656708532,0.0514457683216062,0.07889655509013935,1.1808520189277505
1765469930.0043025,1.440270185470581,-0.00249867722483,0.00721155583201,-0.0324508493378,-0.0117920138773,0.0349965092009,0.00508300539026,-0.0305818468125,0.0817901179747,0.00101319512519,0.0514457683216062,0.07889655509013935,1.1808520189277505
1765469930.0258489,1.4618165493011475,-0.00275345179365,0.00787347083307,-0.0324307241465,-0.0125172015963,0.0360289086746,0.00475622194151,-0.031775830756,0.0749736282143,-0.000381849195506,0.0514457683216062,0.07889655509013935,1.1808520189277505
1765469930.044683,1.4806506633758545,-0.00302095814115,0.00856493321311,-0.0324183729716,-0.0132462553885,0.0370344076347,0.00442203572202,-0.0327528468649,0.0693958142588,-0.00152404636077,0.0514457683216062,0.07889655509013935,1.1808520189277505
1765469930.0666218,1.502589464187622,-0.00330215489336,0.00928543134408,-0.0324123310009,-0.0139797904235,0.0380209247,0.00408610487306,-0.0335525013141,0.0648305632816,-0.00245932883692,0.0514457683216062,0.07889655509013935,1.1808520189277505
1765469930.0853343,1.5213019847869873,-0.0035965619021,0.0100310090254,-0.0297832424882,-0.0147152262455,0.0389883991758,0.0112990825607,-0.0342067836219,0.0610952461725,-0.0028390751141,0.0514457683216062,0.07889655509013935,1.1808520189277505
1765469930.1054764,1.5414440631866455,-0.0039048017883,0.0108012221185,-0.0275793991489,-0.0154529381323,0.0399419015072,0.0167489363115,-0.0347421467809,0.0580388420128,-0.00322541617156,0.0514457683216062,0.07889655509013935,1.1808520189277505
1765469930.1277874,1.5637550354003906,-0.00422774686237,0.0115965309593,-0.0257321653086,-0.0161939267547,0.0408862937059,0.0208012647466,-0.0351803547827,0.0555370995281,-0.00360638770384,0.0514457683216062,0.07889655509013935,1.1808520189277505
1765469930.1465828,1.5825505256652832,-0.00456452922784,0.0124132577282,-0.0241871020854,-0.0169355146542,0.0418198071905,0.0237406751769,-0.0355389231518,0.0534900220697,-0.00397350558883,0.0514457683216062,0.07889655509013935,1.1808520189277505
1765469930.1661673,1.6021349430084229,-0.0049064520462,0.0133628683342,-0.0228732070803,-0.0174961453644,0.0436154700139,0.0259652474632,-0.0335749541568,0.0610194461779,-0.00208630291938,0.04189934282145932,0.07822910034193824,1.1765100010864853
1765469930.186979,1.6229467391967773,-0.00525187805649,0.0143118757315,-0.0217912744208,-0.0180282605885,0.0454058691876,0.0274860100681,-0.031971555098,0.0671665246498,-0.000586267536556,0.04189934282145932,0.07822910034193824,1.1765100010864853
1765469930.207815,1.643782615661621,-0.00560921257949,0.0152851354879,-0.0208943977423,-0.0185526539546,0.0472139748887,0.0284445338469,-0.0306621613213,0.0721864516924,0.000604582335139,0.04189934282145932,0.07822910034193824,1.1765100010864853
1765469930.2270784,1.66304612159729,-0.00597895181145,0.0162873078752,-0.0241698053785,-0.0190723393903,0.0490395416731,0.0186511996064,-0.0295920848619,0.0762888889055,0.000867946018405,0.04189934282145932,0.07822910034193824,1.1765100010864853
1765469930.2471015,1.6830692291259766,-0.00636067738904,0.0173201415161,-0.0269746583194,-0.0195881883127,0.050879500144,0.0106508696934,-0.0287171461215,0.0796432111286,0.00118942347171,0.04189934282145932,0.07822910034193824,1.1765100010864853
1765469930.2674632,1.7034308910369873,-0.00675496114679,0.0183874595288,-0.0293765718666,-0.0201021920189,0.0527350373535,0.00414081005883,-0.0280012719033,0.0823877150441,0.00154401498132,0.04189934282145932,0.07822910034193824,1.1765100010864853
1765469930.2879314,1.7238991260528564,-0.00716078148572,0.0194885315591,-0.0314323849959,-0.0206137671423,0.0546010613801,-0.00112398009869,-0.0274154862366,0.0846334881353,0.00191331531667,0.04189934282145932,0.07822910034193824,1.1765100010864853
1765469930.3078234,1.743791103363037,-0.00757694432358,0.0206217472636,-0.0331892615273,-0.0211221409688,0.0564718943415,-0.00534512070799,-0.0269362834692,0.0864706458902,0.00228377921366,0.04189934282145932,0.07822910034193824,1.1765100010864853
1765469930.328137,1.7641046047210693,-0.00800419716559,0.0217903577666,-0.0346884708246,-0.0216289823627,0.0583499594263,-0.00869275390117,-0.0265441848068,0.0879738657115,0.00264563240803,0.04189934282145932,0.07822910034193824,1.1765100010864853
1765469930.3479545,1.7839221954345703,-0.00844192966975,0.0229937754345,-0.0359651051184,-0.0221340483321,0.060232252579,-0.0113085177275,-0.0262233630435,0.0892038256169,0.00299207124523,0.04189934282145932,0.07822910034193824,1.1765100010864853
1765469930.3672931,1.8032608032226562,-0.00887785897598,0.0241545961698,-0.0327592945415,-0.0225104459463,0.0613277906864,-0.00269318615113,-0.0245512244089,0.0814811299335,0.00586736554515,0.04320387147548862,0.07821591769454235,1.1723452166157649
1765469930.38825,1.8242177963256836,-0.0093235035501,0.0253479234316,-0.0300028478828,-0.0228804340042,0.0623941601719,0.00439184271042,-0.0231828403615,0.0751613108965,0.008110990405,0.04320387147548862,0.07821591769454235,1.1723452166157649
1765469930.4082825,1.844250202178955,-0.0097786367379,0.0265720664478,-0.0276359549409,-0.0232454977107,0.0634377335141,0.0101770790076,-0.0220629653396,0.069989219409,0.00985281341478,0.04320387147548862,0.07821591769454235,1.1723452166157649
1765469930.428454,1.8644216060638428,-0.010242402727,0.027823813193,-0.0256071888079,-0.023606170414,0.064461506473,0.0148577483233,-0.0211465470535,0.0657567835359,0.0111969330966,0.04320387147548862,0.07821591769454235,1.1723452166157649
1765469930.448424,1.8843917846679688,-0.0107168406981,0.0291080190891,-0.023869442927,-0.023965315124,0.0654754609935,0.0186039506261,-0.02039608452,0.0622908067034,0.0122279738862,0.04320387147548862,0.07821591769454235,1.1723452166157649
1765469930.468901,1.9048686027526855,-0.0111996697007,0.0304178741713,-0.0223854460104,-0.0243216870091,0.0664765560976,0.0215556846124,-0.0197817016886,0.0594533077416,0.013012237916,0.04320387147548862,0.07821591769454235,1.1723452166157649
1765469930.4888923,1.9248600006103516,-0.0116886482238,0.0317467697662,-0.0211237733536,-0.0246742319794,0.0674624948065,0.0238327383606,-0.0192791205922,0.0571321599708,0.0136026229713,0.04320387147548862,0.07821591769454235,1.1723452166157649
1765469930.5091097,1.9450774192810059,-0.0121853812002,0.0330986965789,-0.0244797892971,-0.0250249008003,0.0684398675015,0.0149161315501,-0.0188679307839,0.055233098678,0.0132213475713,0.04320387147548862,0.07821591769454235,1.1723452166157649
1765469930.529382,1.9653496742248535,-0.0126939547991,0.034484512443,-0.0273763879793,-0.0253771533866,0.0694192980593,0.00753831386226,-0.0185310591888,0.053677272648,0.0130257855401,0.04320387147548862,0.07821591769454235,1.1723452166157649
1765469930.5498111,1.98577880859375,-0.013209386183,0.0358903301755,-0.0298729534426,-0.025727555185,0.0703911469726,0.00148539846302,-0.0182552954912,0.0524036706432,0.0129671216571,0.04320387147548862,0.07821591769454235,1.1723452166157649
1765469930.5692122,2.0051798820495605,-0.0137628350122,0.0373390649138,-0.0320383076647,-0.0264090036915,0.0716509231544,-0.00387828006735,-0.0217097407512,0.0546548223386,0.00737035689378,0.04901735655923904,0.07860201779595499,1.1700770023153444
1765469930.5897875,2.0257551670074463,-0.0143246515843,0.0388090855731,-0.0338974914237,-0.0271026307714,0.0729182011278,-0.00828539580117,-0.0245349296018,0.0564959077206,0.0028689126084,0.04901735655923904,0.07860201779595499,1.1700770023153444
1765469930.6099274,2.0458950996398926,-0.0148965720688,0.0403026737467,-0.0354915791862,-0.027806676534,0.0741926839046,-0.0118746256154,-0.0268462645471,0.0580021309169,-0.000748804730879,0.04901735655923904,0.07860201779595499,1.1700770023153444
1765469930.631943,2.067910671234131,-0.0154793531992,0.0418199000773,-0.0368558186667,-0.0285191483219,0.0754727542301,-0.0147651454624,-0.0287374920116,0.0592345834795,-0.0036533128535,0.04901735655923904,0.07860201779595499,1.1700770023153444
1765469930.6502187,2.086186408996582,-0.0160739028815,0.043361595933,-0.0380208520307,-0.0292386697657,0.0767576793487,-0.0170597765084,-0.030285167115,0.060243153936,-0.00598264069703,0.04901735655923904,0.07860201779595499,1.1700770023153444
1765469930.6704946,2.106462240219116,-0.0166804695009,0.0449271436619,-0.0369925050929,-0.0299636020203,0.0780458407894,-0.0140329812462,-0.0315516655466,0.0610684905319,-0.00746934593986,0.04901735655923904,0.07860201779595499,1.1700770023153444
1765469930.690184,2.1261518001556396,-0.0173003745852,0.0465189572398,-0.0360985248731,-0.0306937588561,0.0793381891957,-0.0114822680295,-0.0325882672078,0.0617440107419,-0.00872286366427,0.04901735655923904,0.07860201779595499,1.1700770023153444
1765469930.710311,2.1462786197662354,-0.0179328687276,0.0481342579455,-0.035322378465,-0.0314270649594,0.0806317979485,-0.00934433843698,-0.0334365410955,0.062296803754,-0.00978055232247,0.04901735655923904,0.07860201779595499,1.1700770023153444
1765469930.730702,2.1666696071624756,-0.0185792804418,0.0497757969405,-0.0346499264196,-0.0321638684309,0.0819281783667,-0.00756338411479,-0.0341307979169,0.0627492287608,-0.0106738352821,0.04901735655923904,0.07860201779595499,1.1700770023153444
1765469930.7506955,2.1866631507873535,-0.0192391242065,0.0514417850884,-0.0340683560849,-0.0329027908761,0.0832254471104,-0.00609071589953,-0.0346989410374,0.0631194694949,-0.0114287768932,0.04901735655923904,0.07860201779595499,1.1700770023153444
1765469930.7704356,2.2064032554626465,-0.019900587518,0.0531513547527,-0.0335521913141,-0.0335197372466,0.0847002247338,-0.00457430772525,-0.0337968294544,0.0653603549899,-0.00820686606839,0.046943120254717204,0.07858785310790714,1.1654111440855255
1765469930.7908287,2.2267963886260986,-0.0205759336688,0.0548877014814,-0.033105269547,-0.0341335283328,0.0861834454082,-0.00327387977914,-0.0330585131381,0.067194365721,-0.00558812335128,0.046943120254717204,0.07858785310790714,1.1654111440855255
1765469930.8110595,2.2470271587371826,-0.0212644582906,0.0566505790048,-0.0332686720322,-0.0347443721618,0.0876728480318,-0.00346975611479,-0.0324542904024,0.0686952820041,-0.00356425508116,0.046943120254717204,0.07858785310790714,1.1654111440855255
1765469930.8340216,2.269989252090454,-0.0219665376975,0.0584421906821,-0.0334070611454,-0.0353533506645,0.0891684505671,-0.00358310815195,-0.0319597558424,0.0699237279559,-0.00190199164569,0.046943120254717204,0.07858785310790714,1.1654111440855255
1765469930.8516529,2.2876205444335938,-0.0226815575674,0.0602620114648,-0.0335233439857,-0.0359604734064,0.0906684493012,-0.00362729177158,-0.0315550115706,0.0709291308183,-0.000536664270852,0.046943120254717204,0.07858785310790714,1.1654111440855255
1765469930.8715034,2.3074710369110107,-0.0234094522749,0.0621107150382,-0.033620201973,-0.036566160132,0.0921722287579,-0.0036139864506,-0.0312237549532,0.0717519870627,0.000584825580585,0.046943120254717204,0.07858785310790714,1.1654111440855255
1765469930.8917978,2.327765464782715,-0.0241500872255,0.0639886486514,-0.0337000456245,-0.0371706786552,0.0936791236758,-0.00355332156112,-0.0309526438804,0.0724254390856,0.00150603551215,0.046943120254717204,0.07858785310790714,1.1654111440855255
1765469930.912192,2.3481597900390625,-0.0249032266359,0.0658957799856,-0.0337650322236,-0.0377741455369,0.095188346126,-0.00345407823457,-0.030730764236,0.07297659804,0.00226268653794,0.046943120254717204,0.07858785310790714,1.1654111440855255
1765469930.9323883,2.3683559894561768,-0.0256688666458,0.0678325592496,-0.0338171120838,-0.0383768151045,0.0966996203379,-0.00332382701133,-0.0305491757542,0.0734276719454,0.00288412224052,0.046943120254717204,0.07858785310790714,1.1654111440855255
1765469930.9522722,2.388239860534668,-0.0264468492627,0.069798964702,-0.034224760618,-0.0389787692789,0.0982124224254,-0.00404061042236,-0.0304005642798,0.0737968294906,0.00332535486668,0.046943120254717204,0.07858785310790714,1.1654111440855255
1765469930.9721856,2.4081532955169678,-0.0272469576222,0.0717917478903,-0.0345765875046,-0.0396747292484,0.0996851765687,-0.00468635635709,-0.0313180272674,0.0736375833522,0.00231295506963,0.04404242600134892,0.07869586093486666,1.1612331769674091
1765469930.9925013,2.428468942642212,-0.0280597423596,0.0738144195987,-0.0348755006972,-0.040374045524,0.101157329298,-0.00518223035197,-0.0320688972214,0.0735072531458,0.00149662630389,0.04404242600134892,0.07869586093486666,1.1612331769674091
1765469931.0130837,2.4490513801574707,-0.0288853474953,0.0758665088257,-0.0351285842605,-0.0410759744633,0.102628689194,-0.00555099385686,-0.0326833953378,0.0734005933096,0.000838925527476,0.04404242600134892,0.07869586093486666,1.1612331769674091
1765469931.0327718,2.4687395095825195,-0.0297241878786,0.077948374373,-0.0353420525476,-0.0417801436921,0.104099641386,-0.00581238956198,-0.0331862920476,0.0733133043834,0.000309419124546,0.04404242600134892,0.07869586093486666,1.1612331769674091
1765469931.0531595,2.4891271591186523,-0.0305764307936,0.0800598783528,-0.0355212951528,-0.0424861127528,0.105570186913,-0.00598352283208,-0.0335978545128,0.0732418685499,-0.000116574336359,0.04404242600134892,0.07869586093486666,1.1612331769674091
1765469931.073174,2.509141683578491,-0.0314421824043,0.0822008327935,-0.0356710025611,-0.0431934980807,0.107040279238,-0.00607918841134,-0.0339346669639,0.0731834072464,-0.000459060288856,0.04404242600134892,0.07869586093486666,1.1612331769674091
1765469931.0933595,2.529327154159546,-0.0323218487793,0.084371874559,-0.0337784409457,-0.0439022359698,0.108510419584,-0.00132063003558,-0.0342103177059,0.0731355619199,-0.000354282762781,0.04404242600134892,0.07869586093486666,1.1612331769674091
1765469931.1137416,2.5497093200683594,-0.0332149773375,0.0865715836535,-0.0321466380349,-0.044611662965,0.109979705069,0.00259128497421,-0.0344358968253,0.0730964076389,-0.000335696977311,0.04404242600134892,0.07869586093486666,1.1612331769674091
1765469931.1340227,2.569990396499634,-0.034122570981,0.0888021880261,-0.0307426303568,-0.0453222997945,0.111449666633,0.00577487565126,-0.0346205215944,0.0730643618976,-0.000378240127015,0.04404242600134892,0.07869586093486666,1.1612331769674091
1765469931.1539881,2.5899558067321777,-0.0350451689955,0.0910648007306,-0.0295373382751,-0.0460343331492,0.112921025974,0.00833335393425,-0.0347716471798,0.0730381306859,-0.00046262521429,0.04404242600134892,0.07869586093486666,1.1612331769674091
1765469931.173583,2.609550714492798,-0.0359965044942,0.0933646849237,-0.0285030440952,-0.0468987693027,0.114484892381,0.0104166702158,-0.036574028255,0.0740499490753,0.000181627309466,0.0463544409793228,0.07884522266012807,1.1589159605029313
1765469931.193632,2.6295995712280273,-0.0369617302806,0.0956924237333,-0.0276203145263,-0.0477691016416,0.116051060765,0.0120449640085,-0.0380488465323,0.0748778806791,0.000672476731713,0.0463544409793228,0.07884522266012807,1.1589159605029313
1765469931.2140908,2.6500585079193115,-0.0379422783764,0.0980503750733,-0.0268692350261,-0.0486447621413,0.117620169226,0.0132859429224,-0.0392557182747,0.0755553927988,0.00104325762561,0.0463544409793228,0.07884522266012807,1.1589159605029313
1765469931.2338533,2.66982102394104,-0.0389385754446,0.100438644647,-0.0278822950245,-0.0495247197583,0.1191915624,0.0102793058482,-0.0402433621939,0.0761098350826,0.00100969343499,0.0463544409793228,0.07884522266012807,1.1589159605029313
1765469931.255087,2.691054582595825,-0.0399505556487,0.102856328005,-0.0287633722065,-0.0504077947218,0.120764080361,0.00773001211962,-0.0410515694157,0.0765635454221,0.00101850363952,0.0463544409793228,0.07884522266012807,1.1589159605029313
1765469931.2752147,2.7111823558807373,-0.0409923041167,0.105336431056,-0.0295287356751,-0.0513044647101,0.122357985237,0.00557323710835,-0.0417142468801,0.076935558452,0.00105687692194,0.0463544409793228,0.07884522266012807,1.1589159605029313
1765469931.2952967,2.731264352798462,-0.0420403036452,0.107822205353,-0.030193543809,-0.0521948508154,0.123937019101,0.00376267691368,-0.0422562127426,0.0772398065567,0.00111575570983,0.0463544409793228,0.07884522266012807,1.1589159605029313
1765469931.3155034,2.7514710426330566,-0.0431035920256,0.110334946952,-0.0307688255869,-0.0530857130101,0.125514431796,0.00225218961158,-0.0426994278635,0.0774886180961,0.0011876985015,0.0463544409793228,0.07884522266012807,1.1589159605029313
1765469931.33565,2.7716176509857178,-0.0441840225101,0.112878743657,-0.0312656984794,-0.0539780595541,0.127092537415,0.00100064663111,-0.043061978441,0.0776921462769,0.00126706219616,0.0463544409793228,0.07884522266012807,1.1589159605029313
1765469931.3557909,2.7917585372924805,-0.045281843313,0.115453913004,-0.0316940573403,-0.0548716830546,0.128671321612,-2.78174882929e-05,-0.0433586017088,0.0778586642688,0.00134965962219,0.0463544409793228,0.07884522266012807,1.1589159605029313
1765469931.3767343,2.812701940536499,-0.0464190524785,0.118056362732,-0.032063342361,-0.0559705537893,0.130179363498,-0.000879623005839,-0.0458377672033,0.0771887890338,0.00124477773898,0.04713882098294599,0.07869566952016331,1.1572829101224946
1765469931.396087,2.832054615020752,-0.0475737340872,0.120687761434,-0.0321970669326,-0.0570776138275,0.131683548194,-0.00113190374623,-0.0478664536628,0.0766406340915,0.00120655675313,0.04713882098294599,0.07869566952016331,1.1572829101224946
1765469931.4161694,2.8521370887756348,-0.0487474727824,0.123349640768,-0.0323109532139,-0.0581918147426,0.133185397645,-0.00132527594729,-0.0495265750524,0.0761920661325,0.00117996695564,0.04713882098294599,0.07869566952016331,1.1572829101224946
1765469931.4362235,2.8721911907196045,-0.0499410120476,0.126041955002,-0.0324075967901,-0.0593118693688,0.134685366425,-0.00146864113922,-0.0508851455562,0.0758249777967,0.00116218364619,0.04713882098294599,0.07869566952016331,1.1572829101224946
1765469931.456239,2.8922066688537598,-0.0511552924043,0.128765413735,-0.0324892810167,-0.0604370120829,0.136184238024,-0.00156972547844,-0.0519970288164,0.0755245448237,0.00115098923947,0.04713882098294599,0.07869566952016331,1.1572829101224946
1765469931.4770298,2.9129974842071533,-0.0523903883773,0.131519020207,-0.0325579858754,-0.0615660218452,0.137681765754,-0.0016352372757,-0.0529070187637,0.075278663808,0.00114465321217,0.04713882098294599,0.07869566952016331,1.1572829101224946
1765469931.4979901,2.933957815170288,-0.0536472184257,0.134303885406,-0.0326154667024,-0.0626986317525,0.139178811909,-0.00167097016493,-0.0536518277539,0.0750774150014,0.0011418308257,0.04713882098294599,0.07869566952016331,1.1572829101224946
1765469931.5166678,2.9526355266571045,-0.0549261093495,0.137119950692,-0.0326632456907,-0.0638342528844,0.140675535617,-0.00168193826121,-0.0542614629549,0.0749126904098,0.00114148520617,0.04713882098294599,0.07869566952016331,1.1572829101224946
1765469931.5373425,2.9733102321624756,-0.0562386087224,0.139991850648,-0.0336204558886,-0.0649818770699,0.142185054556,-0.00385182478551,-0.0547611042131,0.0747776863909,0.000969761610363,0.04713882098294599,0.07869566952016331,1.1572829101224946
1765469931.5573337,2.9933013916015625,-0.0575609434434,0.14286689589,-0.0344410632492,-0.0661208322779,0.143679638733,-0.00559557329576,-0.0551697109739,0.0746672800665,0.000863227738289,0.04713882098294599,0.07869566952016331,1.1572829101224946
1765469931.5790966,3.015064239501953,-0.0588607909174,0.14579877709,-0.03513398469,-0.0667779089026,0.145350006293,-0.00676768568493,-0.0501422029539,0.0764643859123,0.0033938835784,0.045511026184473106,0.07884412410617841,1.1554927332377434
1765469931.5975418,3.0335094928741455,-0.0601775863169,0.148753796602,-0.0357228887644,-0.0674138295963,0.147022827766,-0.00762052977851,-0.0460295090462,0.0779344872496,0.00548848976888,0.045511026184473106,0.07884412410617841,1.1554927332377434
1765469931.6174736,3.053441286087036,-0.061513119123,0.151740163899,-0.0362212631682,-0.0680348094956,0.148700877376,-0.00820359367712,-0.042664612504,0.0791372849821,0.00722289469589,0.045511026184473106,0.07884412410617841,1.1554927332377434
1765469931.637651,3.0736186504364014,-0.0628666301299,0.154759770037,-0.0366408332409,-0.0686439262015,0.150383932669,-0.00855978520474,-0.0399110450771,0.0801215603129,0.00865956804064,0.045511026184473106,0.07884412410617841,1.1554927332377434
1765469931.6583014,3.094269037246704,-0.0642492663546,0.157840001404,-0.0369933212123,-0.0692501348023,0.152085512961,-0.00872453970164,-0.0376545538445,0.0809281534738,0.00985144377292,0.045511026184473106,0.07884412410617841,1.1554927332377434
1765469931.678119,3.114086627960205,-0.0656350347905,0.160926221122,-0.0356329475008,-0.0698410673049,0.153775720893,-0.00481018931972,-0.0358091672637,0.0815877953876,0.0111497686645,0.045511026184473106,0.07884412410617841,1.1554927332377434
1765469931.6984746,3.1344423294067383,-0.0670460249899,0.16406894992,-0.0344520753032,-0.0704305601854,0.155480665851,-0.00149760355051,-0.0342979449863,0.0821279887355,0.0121645832875,0.045511026184473106,0.07884412410617841,1.1554927332377434
1765469931.7185078,3.154475450515747,-0.06846076259,0.167222449682,-0.03342898667,-0.0710093581463,0.157175593896,0.0012851906859,-0.0330622688504,0.0825696868489,0.0129520620338,0.045511026184473106,0.07884412410617841,1.1554927332377434
1765469931.7383873,3.1743550300598145,-0.0698869079027,0.170404870119,-0.0325444704725,-0.0715827602097,0.158869727764,0.00361071565018,-0.0320518146023,0.0829308783635,0.013559469776,0.045511026184473106,0.07884412410617841,1.1554927332377434
1765469931.7588153,3.1947829723358154,-0.0713294959983,0.173628464997,-0.0317804389998,-0.0721540400728,0.160569098487,0.00554324252602,-0.0312249826695,0.0832264332375,0.0140250380109,0.045511026184473106,0.07884412410617841,1.1554927332377434
1765469931.7804167,3.2163844108581543,-0.0728250024982,0.176801723332,-0.0311303132954,-0.0731428767648,0.161484897902,0.00695707436722,-0.0351884345489,0.074862090424,0.012155273264,0.04639438423448478,0.0781797403156093,1.1549855342081379
1765469931.7990944,3.2350621223449707,-0.0743337662093,0.180003813202,-0.0305726514461,-0.0741456043101,0.16236967593,0.0080713065787,-0.0384311128014,0.0680188453527,0.0106024336736,0.04639438423448478,0.0781797403156093,1.1549855342081379
1765469931.8191974,3.2551651000976562,-0.075858961721,0.183235912352,-0.0302790551729,-0.0751605562453,0.163230646996,0.00849461885565,-0.0410847343244,0.0624187268725,0.00927738984564,0.04639438423448478,0.0781797403156093,1.1549855342081379
1765469931.8396347,3.275602340698242,-0.0774004037817,0.186492878125,-0.0300304534489,-0.0761849691653,0.164071047489,0.00878200153931,-0.0432563306056,0.0578358591346,0.00818272710247,0.04639438423448478,0.0781797403156093,1.1549855342081379
1765469931.8594608,3.295428514480591,-0.0789590169906,0.189772879105,-0.0298211323379,-0.0772171044907,0.164894617559,0.00895506623661,-0.0450334923015,0.0540853936029,0.00727821437491,0.04639438423448478,0.0781797403156093,1.1549855342081379
1765469931.8806152,3.3165829181671143,-0.0805416450166,0.193087313963,-0.0296454513231,-0.0782591223032,0.165708460222,0.00903279940335,-0.0464887270827,0.0510143123952,0.0065302669619,0.04639438423448478,0.0781797403156093,1.1549855342081379
1765469931.900105,3.3360726833343506,-0.0821498774914,0.196436686711,-0.0294990080099,-0.0793105530873,0.166514988473,0.00903097327355,-0.0476807627134,0.0484986783053,0.00591150819732,0.04639438423448478,0.0781797403156093,1.1549855342081379
1765469931.9225552,3.358522891998291,-0.0837700264983,0.19979008154,-0.0293792824834,-0.080361937029,0.167307358582,0.00896306101919,-0.0486560013073,0.0464405657881,0.00540030823641,0.04639438423448478,0.0781797403156093,1.1549855342081379
1765469931.9403813,3.3763489723205566,-0.0854058459998,0.203153947822,-0.0292822550191,-0.0814144172836,0.168089842148,0.00884188018689,-0.049453602949,0.0447573326462,0.00497819764208,0.04639438423448478,0.0781797403156093,1.1549855342081379
1765469931.9605455,3.3965132236480713,-0.0870608897456,0.206534390017,-0.029204458067,-0.0824692927141,0.168865813313,0.00867816077012,-0.0501060275603,0.0433804764929,0.0046296951127,0.04639438423448478,0.0781797403156093,1.1549855342081379
1765469931.9810767,3.4170444011688232,-0.0886386305959,0.210039549455,-0.0291504840069,-0.082404669301,0.170370754007,0.00829485263785,-0.038180808373,0.0502376225351,0.00202638363475,0.04175140838409462,0.07783567654752788,1.154980074727903
1765469932.0010285,3.4369962215423584,-0.0902152593407,0.213529668048,-0.0291126019376,-0.0822871586968,0.17189111389,0.00787773724523,-0.0284315113471,0.0558435868755,-0.000103609156397,0.04175140838409462,0.07783567654752788,1.154980074727903
1765469932.0211627,3.4571304321289062,-0.091804519618,0.217043600571,-0.0290872047479,-0.0821349785319,0.17343201161,0.00743658110717,-0.0204575227652,0.0604287272731,-0.00184689543153,0.04175140838409462,0.07783567654752788,1.154980074727903
1765469932.0413053,3.4772729873657227,-0.0934023083797,0.220581624466,-0.0290727247496,-0.0819540801032,0.174989336622,0.00697898537171,-0.0139341479848,0.0641797470955,-0.00327373350614,0.04175140838409462,0.07783567654752788,1.154980074727903
1765469932.0613904,3.4973580837249756,-0.0950054285779,0.224144240313,-0.0290676742922,-0.0817495812587,0.176559715801,0.00651148721947,-0.00859694108164,0.0672487059648,-0.00444140586492,0.04175140838409462,0.07783567654752788,1.154980074727903
1765469932.0815566,3.517524242401123,-0.0966147033804,0.227739312857,-0.029070499625,-0.0815260133672,0.178143228617,0.00603922557013,-0.00422866453446,0.0697605180972,-0.00539704670109,0.04175140838409462,0.07783567654752788,1.154980074727903
1765469932.1029117,3.53887939453125,-0.0982238633656,0.231358213065,-0.0290802399392,-0.0812864422989,0.179734170626,0.00556721090323,-0.000654180622658,0.0718158898119,-0.00617867852725,0.04175140838409462,0.07783567654752788,1.154980074727903
1765469932.1217842,3.5577518939971924,-0.0998342645194,0.235007988126,-0.0309287642785,-0.0810339123713,0.18133330425,0.000744511919761,0.00227120650238,0.0734980229812,-0.00716328907464,0.04175140838409462,0.07783567654752788,1.154980074727903
1765469932.1419294,3.577897071838379,-0.101444436553,0.23868881723,-0.0325252178337,-0.080770703661,0.182939094661,-0.0032554472505,0.00466551913634,0.0748747818604,-0.00790349678969,0.04175140838409462,0.07783567654752788,1.154980074727903
1765469932.1621962,3.5981638431549072,-0.103051231642,0.242396377606,-0.0339010628829,-0.0804988645848,0.18454843626,-0.00654497417828,0.00662484264656,0.076001416704,-0.00845259721551,0.04175140838409462,0.07783567654752788,1.154980074727903
1765469932.182491,3.6184587478637695,-0.104742738998,0.246092510603,-0.0350771206525,-0.0810915745596,0.185757850881,-0.00907081479322,-0.00137002384422,0.072480907762,-0.00695287002502,0.04675953690944827,0.07836128467816865,1.1554073789248063
1765469932.2029967,3.6389644145965576,-0.106436013603,0.249821648293,-0.0360850879072,-0.0817133486083,0.186955843793,-0.0110663496061,-0.00791386287805,0.069599353222,-0.0056837898397,0.04675953690944827,0.07836128467816865,1.1554073789248063
1765469932.2241392,3.660106897354126,-0.108133347046,0.253581634158,-0.0369462691785,-0.082359175064,0.1881442211,-0.0126089263839,-0.0132704161738,0.0672406154247,-0.00460947958348,0.04675953690944827,0.07836128467816865,1.1554073789248063
1765469932.2426279,3.678595542907715,-0.109833638705,0.257363910399,-0.0376788412643,-0.0830242285965,0.189322162853,-0.0137656201398,-0.0176539129376,0.065310359357,-0.00370011210866,0.04675953690944827,0.07836128467816865,1.1554073789248063
1765469932.2627184,3.698686122894287,-0.111540806954,0.261172486815,-0.0382996657944,-0.0837051837102,0.190493015283,-0.0145955040745,-0.021241305191,0.0637306648717,-0.00293030515534,0.04675953690944827,0.07836128467816865,1.1554073789248063
1765469932.2838497,3.7198173999786377,-0.113255872715,0.265005653809,-0.0388232450751,-0.0843990230459,0.191657706305,-0.015149764896,-0.024177167349,0.0624378691769,-0.00227872912455,0.04675953690944827,0.07836128467816865,1.1554073789248063
1765469932.3030362,3.739003896713257,-0.114982553003,0.268868553533,-0.0392628030421,-0.0851041060116,0.192819119002,-0.0154727937271,-0.0265803736185,0.0613796264695,-0.00172726228457,0.04675953690944827,0.07836128467816865,1.1554073789248063
1765469932.3229606,3.7589282989501953,-0.116718985032,0.27275426076,-0.0396290845413,-0.0858176864393,0.193975988341,-0.0156029681865,-0.0285472981011,0.0605134987815,-0.00126081763927,0.04675953690944827,0.07836128467816865,1.1554073789248063
1765469932.3438196,3.779787302017212,-0.118467382873,0.276665589075,-0.0399321979189,-0.0865386037439,0.19513002768,-0.0155735242078,-0.030157222554,0.0598045746939,-0.000866544399803,0.04675953690944827,0.07836128467816865,1.1554073789248063
1765469932.3733747,3.809342384338379,-0.120244899293,0.280639330325,-0.0401831009524,-0.0872714382804,0.196293020385,-0.0154117562762,-0.0314768099923,0.0592234994025,-0.000533000110185,0.04675953690944827,0.07836128467816865,1.1554073789248063
1765469932.3840828,3.8200504779815674,-0.122045578465,0.284674584498,-0.0403860740065,-0.0881742044415,0.197965185502,-0.0151567164237,-0.0343985688021,0.0644301689603,-0.000424180975179,0.046116533309005454,0.07918952777718329,1.1554356084323611
1765469932.4038398,3.8398075103759766,-0.123849862123,0.288712758325,-0.0396293588234,-0.0890838026215,0.199649158998,-0.0126378945515,-0.036787543505,0.0686873998509,-0.000155520829809,0.046116533309005454,0.07918952777718329,1.1554356084323611
1765469932.4241912,3.860158920288086,-0.125668125763,0.292776733391,-0.0389672729161,-0.0900016642272,0.201347829076,-0.0104628197408,-0.0387413863521,0.072169211573,3.6847795851e-05,0.046116533309005454,0.07918952777718329,1.1554356084323611
1765469932.4465368,3.882504463195801,-0.12750813509,0.296883496203,-0.0383885533951,-0.0909292496391,0.203064038538,-0.00858680262762,-0.0403405553644,0.0750189829456,0.000170503720283,0.046116533309005454,0.07918952777718329,1.1554356084323611
1765469932.4644094,3.900377035140991,-0.129358038405,0.301006257629,-0.0378824154137,-0.0918598345008,0.204785371423,-0.00697370394578,-0.0416486140298,0.0773499861791,0.000258926453118,0.046116533309005454,0.07918952777718329,1.1554356084323611
1765469932.484518,3.920485734939575,-0.131225172536,0.305161179086,-0.0374406285862,-0.0927953210201,0.206515453405,-0.00558985569999,-0.0427188252472,0.0792571374975,0.000313055994447,0.046116533309005454,0.07918952777718329,1.1554356084323611
1765469932.5046732,3.940640926361084,-0.13310959178,0.309348181315,-0.0370553102474,-0.0937346866207,0.208252448783,-0.00440589381895,-0.0435945509743,0.0808177093247,0.00034147395375,0.046116533309005454,0.07918952777718329,1.1554356084323611
1765469932.5247617,3.9607293605804443,-0.135012765663,0.313570365326,-0.0367195778317,-0.0946777491727,0.209996069571,-0.00339597276571,-0.0443112580994,0.082094904813,0.000350913634653,0.046116533309005454,0.07918952777718329,1.1554356084323611
1765469932.5467937,3.9827613830566406,-0.13693940153,0.317838014431,-0.0375276967022,-0.0956260020034,0.211749120244,-0.00515084992883,-0.0448980765106,0.0831406343741,0.000139204697925,0.046116533309005454,0.07918952777718329,1.1554356084323611
1765469932.5661118,4.002079486846924,-0.138994039301,0.322486780691,-0.0382232300547,-0.0961581450568,0.213590692271,-0.00632152550794,-0.0399561087505,0.0834167844309,0.00297370753662,0.043406517228497636,0.07876745835629775,1.155541735401801
1765469932.5869057,4.022873401641846,-0.140900908101,0.326805411006,-0.0388043739311,-0.0965969526427,0.215290330161,-0.00716739266164,-0.0359402292391,0.0836411860072,0.00530210269117,0.043406517228497636,0.07876745835629775,1.155541735401801
1765469932.6076195,4.0435872077941895,-0.14282217049,0.331156937492,-0.0392945515307,-0.0970222387209,0.216990335625,-0.00774196264973,-0.0326692361257,0.0838239644019,0.00721945042573,0.043406517228497636,0.07876745835629775,1.155541735401801
1765469932.6270938,4.063061475753784,-0.144756768129,0.335542197431,-0.039706210062,-0.097436470917,0.218690877082,-0.00809039201909,-0.0300006925419,0.0839730787827,0.00880100664608,0.043406517228497636,0.07876745835629775,1.155541735401801
1765469932.6472843,4.083251953125,-0.146704387092,0.339963088153,-0.0400500740718,-0.0978418075492,0.220392548643,-0.00825084881266,-0.0278211670375,0.0840948675359,0.010107145592,0.043406517228497636,0.07876745835629775,1.155541735401801
1765469932.6675649,4.103532552719116,-0.148665620256,0.344423087438,-0.0403354553135,-0.0982402044344,0.222096547929,-0.00825566140596,-0.0260395134003,0.0841944237809,0.011186763676,0.043406517228497636,0.07876745835629775,1.155541735401801
1765469932.6877763,4.123744010925293,-0.15064739452,0.348939694433,-0.0383651009091,-0.0986348343185,0.223809334287,-0.00289616559465,-0.0245814832273,0.0842758964118,0.012497135274,0.043406517228497636,0.07876745835629775,1.155541735401801
1765469932.7078762,4.14384388923645,-0.152628231016,0.353465657392,-0.0366615759012,-0.09902143804,0.225512991957,0.00157957511139,-0.0233894627539,0.0843425048029,0.0134977101441,0.043406517228497636,0.07876745835629775,1.155541735401801
1765469932.7280798,4.164047479629517,-0.154616885572,0.358021884608,-0.0351915340553,-0.099403435314,0.227215416337,0.0052940085069,-0.0224147047464,0.0843969728796,0.0142549822091,0.043406517228497636,0.07876745835629775,1.155541735401801
1765469932.7481682,4.184135913848877,-0.156615119451,0.362613331152,-0.0339248675762,-0.0997820907805,0.22891841544,0.00835353255625,-0.0216173406674,0.0844415284385,0.0148220477328,0.043406517228497636,0.07876745835629775,1.155541735401801
1765469932.7676225,4.203590154647827,-0.158629005852,0.367207183137,-0.0328521424994,-0.100211596425,0.230275049158,0.0104867772536,-0.0215516663424,0.0806552592945,0.0107138524641,0.04548743224169069,0.07768739673145932,1.1575964973408515
1765469932.7884293,4.2243969440460205,-0.160649313787,0.371828579725,-0.0319348627143,-0.100640368501,0.231616260565,0.0121220186348,-0.0214979338707,0.0775574642356,0.00731453289891,0.04548743224169069,0.07768739673145932,1.1575964973408515
1765469932.8085077,4.244475364685059,-0.162678689943,0.376482357175,-0.0311533620575,-0.101069025337,0.232946673026,0.013334093871,-0.0214539645964,0.0750225389624,0.004500426819,0.04548743224169069,0.07768739673145932,1.1575964973408515
1765469932.828707,4.264674663543701,-0.16472542096,0.381186635295,-0.0306727544704,-0.101499353359,0.234274265069,0.0137524017808,-0.021417959087,0.072946742229,0.00213390595316,0.04548743224169069,0.07768739673145932,1.1575964973408515
1765469932.849328,4.285295724868774,-0.166772930941,0.385902358208,-0.0302710992436,-0.101927874164,0.235588524905,0.0139495472376,-0.0213885006444,0.0712483982839,0.000180997682472,0.04548743224169069,0.07768739673145932,1.1575964973408515
1765469932.8691144,4.305082082748413,-0.168828208468,0.39064494514,-0.0299373126033,-0.102356100203,0.236896040054,0.0139633173264,-0.0213643974464,0.0698587959582,-0.0014307588801,0.04548743224169069,0.07768739673145932,1.1575964973408515
1765469932.8890297,4.324997425079346,-0.170892628998,0.395417020134,-0.0296622498962,-0.102784341222,0.238198878685,0.0138260097019,-0.0213446729702,0.0687216365647,-0.00276113242376,0.04548743224169069,0.07768739673145932,1.1575964973408515
1765469932.9092712,4.345238924026489,-0.172965452221,0.400216416008,-0.029438095103,-0.103212460026,0.239497441419,0.0135655209108,-0.0213285310891,0.0677910216508,-0.00385916733333,0.04548743224169069,0.07768739673145932,1.1575964973408515
1765469932.92953,4.365497589111328,-0.175047483795,0.405044631411,-0.0292577884059,-0.103640637298,0.240793003824,0.0132057716973,-0.0213153199069,0.0670293679711,-0.00476532386673,0.04548743224169069,0.07768739673145932,1.1575964973408515
1765469932.949867,4.385834693908691,-0.177136814761,0.40989692711,-0.029115397567,-0.104068492233,0.242084941135,0.0127675420251,-0.0213045082435,0.0664060518205,-0.00551280074759,0.04548743224169069,0.07768739673145932,1.1575964973408515
1765469932.9697514,4.405719041824341,-0.179220600821,0.414790901217,-0.0289928499071,-0.104321389301,0.243441020524,0.0125307140513,-0.0193613738168,0.0666021951955,-0.00285219267276,0.04712526382852181,0.07797223013242169,1.1594370079702052
1765469932.9903927,4.426360368728638,-0.181378907699,0.419867762226,-0.0305495963963,-0.104578800378,0.244840285836,0.00831441654223,-0.0177633670907,0.066763500779,-0.000982181356735,0.04712526382852181,0.07797223013242169,1.1594370079702052
1765469933.010544,4.446511745452881,-0.183476225686,0.424812344884,-0.0319012315454,-0.104817926465,0.246196529404,0.00482104928546,-0.0164589630261,0.0668951695983,0.000600980264374,0.04712526382852181,0.07797223013242169,1.1594370079702052
1765469933.0306094,4.466577053070068,-0.1855834126,0.429791418952,-0.033067184308,-0.105052914161,0.247555233854,0.00194609694925,-0.0153930438625,0.067002765336,0.00194325949394,0.04712526382852181,0.07797223013242169,1.1594370079702052
1765469933.0506206,4.4865882396698,-0.187691959155,0.434786041784,-0.0340709410437,-0.105283379201,0.248911174833,-0.000396933184226,-0.0145218989591,0.0670907002206,0.00308201892965,0.04712526382852181,0.07797223013242169,1.1594370079702052
1765469933.0708613,4.506829023361206,-0.189808009014,0.439811572816,-0.0349332384276,-0.105510972937,0.25026843539,-0.00228454125612,-0.0138094985692,0.0671626111573,0.00404900599021,0.04712526382852181,0.07797223013242169,1.1594370079702052
1765469933.0911415,4.527109146118164,-0.191929334465,0.444863483755,-0.0356721544472,-0.1057359741,0.251625728815,-0.00378256456137,-0.0132267680794,0.0672214329884,0.00487056304988,0.04712526382852181,0.07797223013242169,1.1594370079702052
1765469933.1112328,4.547200441360474,-0.194056120327,0.449942810849,-0.0363035160618,-0.105958895566,0.252983281203,-0.00494813083664,-0.0127500075927,0.0672695580227,0.00556881734734,0.04712526382852181,0.07797223013242169,1.1594370079702052
1765469933.1313019,4.567269563674927,-0.196189358887,0.455052427064,-0.0357410060323,-0.106180250873,0.25434180894,-0.00321754471641,-0.0123598610884,0.0673089400907,0.00636987092616,0.04712526382852181,0.07797223013242169,1.1594370079702052
1765469933.1520572,4.588024854660034,-0.198326080249,0.460185630363,-0.0352512312011,-0.106400016038,0.255699500134,-0.00173728999921,-0.0120406150385,0.0673411653433,0.00700519814071,0.04712526382852181,0.07797223013242169,1.1594370079702052
1765469933.170877,4.606844663619995,-0.200523384692,0.465362000558,-0.034837517605,-0.107152558845,0.257172705066,-0.000741012504656,-0.0176541066438,0.06862517324,0.00418739780868,0.046269053376872135,0.07826035919523304,1.159831954759864
1765469933.1922228,4.628190517425537,-0.202726756244,0.470564071335,-0.0344800779971,-0.10792536557,0.25865002153,5.50334504915e-05,-0.0222481079693,0.0696759869571,0.00186646468479,0.046269053376872135,0.07826035919523304,1.159831954759864
1765469933.2119439,4.647911548614502,-0.204937797565,0.47579156065,-0.0341724069084,-0.108714593114,0.260130401083,0.000679261876729,-0.0260075698729,0.0705359114232,-4.5658990662e-05,0.046269053376872135,0.07826035919523304,1.159831954759864
1765469933.2321339,4.66810154914856,-0.207158748304,0.48104646178,-0.033908622437,-0.109517316833,0.261613590521,0.00115664293858,-0.0290841823092,0.0712396435994,-0.00162144628477,0.046269053376872135,0.07826035919523304,1.159831954759864
1765469933.2523494,4.688317060470581,-0.209391373888,0.486330239316,-0.0336834357463,-0.110331189896,0.263099345614,0.00150899527997,-0.0316021250948,0.0718155878865,-0.0029204510978,0.046269053376872135,0.07826035919523304,1.159831954759864
1765469933.272386,4.708353757858276,-0.211637645854,0.491645340877,-0.0334921045037,-0.111154478767,0.264587808797,0.00175533859073,-0.0336630534706,0.0722869965026,-0.00399162667358,0.046269053376872135,0.07826035919523304,1.159831954759864
1765469933.292701,4.728668689727783,-0.213897584649,0.496989970028,-0.0333304358023,-0.111985308622,0.26607805847,0.0019122508305,-0.0353499126974,0.0726728420191,-0.00487508867546,0.046269053376872135,0.07826035919523304,1.159831954759864
1765469933.3127513,4.748718976974487,-0.216170600361,0.502361228799,-0.0331947133468,-0.112821908725,0.267568950461,0.001994198789,-0.0367304771402,0.0729886268766,-0.00560376776755,0.046269053376872135,0.07826035919523304,1.159831954759864
1765469933.332768,4.768735647201538,-0.218459406402,0.507764332986,-0.0330815679349,-0.113663847151,0.269061617875,0.00201362839175,-0.0378604749551,0.0732470981133,-0.0062048881762,0.046269053376872135,0.07826035919523304,1.159831954759864
1765469933.3528793,4.788846969604492,-0.220762308266,0.513194267624,-0.0329880865205,-0.114509504514,0.270554458398,0.00198149748552,-0.0387853011772,0.0734586392103,-0.00670074254575,0.046269053376872135,0.07826035919523304,1.159831954759864
1765469933.3723762,4.808343887329102,-0.223015382533,0.518655648361,-0.0329055792072,-0.114691134288,0.272021974403,0.00203683787303,-0.0321828968765,0.0733310044656,-0.00549050404133,0.04613544591393422,0.07807397120844113,1.1632875394322963
1765469933.3931043,4.829071998596191,-0.225283340393,0.524150545987,-0.0328375276964,-0.114848993434,0.273490036324,0.00206317824677,-0.0267781137842,0.0732265216017,-0.0045025217359,0.04613544591393422,0.07807397120844113,1.1632875394322963
1765469933.4132905,4.849258184432983,-0.227560113824,0.529669800471,-0.0333315607174,-0.114986507676,0.274956283464,0.000759681329764,-0.0223547291899,0.0731410106973,-0.00379973055446,0.04613544591393422,0.07807397120844113,1.1632875394322963
1765469933.4334466,4.869414329528809,-0.229846827628,0.535220408061,-0.0337589739816,-0.115108005515,0.276422671696,-0.000318516146491,-0.0187342941581,0.0730710220568,-0.00320689936435,0.04613544591393422,0.07807397120844113,1.1632875394322963
1765469933.4535098,4.889477491378784,-0.232140502325,0.540798789352,-0.0341279081892,-0.115216148176,0.277888316367,-0.00120220512839,-0.0157712304385,0.0730137414263,-0.00270650349236,0.04613544591393422,0.07807397120844113,1.1632875394322963
1765469933.4735794,4.9095470905303955,-0.234440954276,0.546407422205,-0.0344455923776,-0.115313513551,0.279353926049,-0.00191851832746,-0.013346085456,0.0729668596016,-0.00228385977701,0.04613544591393422,0.07807397120844113,1.1632875394322963
1765469933.493825,4.929792642593384,-0.236755740035,0.552067120208,-0.0347186642858,-0.11540294037,0.280824946846,-0.00249153503131,-0.0113600759027,0.0729284669479,-0.00192651990183,0.04613544591393422,0.07807397120844113,1.1632875394322963
1765469933.5139449,4.9499125480651855,-0.239066106687,0.557734322658,-0.0349522682355,-0.115484097328,0.282290069842,-0.00294117597507,-0.0097351337192,0.072897054288,-0.00162450410607,0.04613544591393422,0.07807397120844113,1.1632875394322963
1765469933.5343015,4.970269203186035,-0.241380563347,0.563431265364,-0.0351515649387,-0.115559351443,0.283755130732,-0.00328578600712,-0.00840545582956,0.0728713495462,-0.00136914687435,0.04613544591393422,0.07807397120844113,1.1632875394322963
1765469933.5554438,4.991411447525024,-0.243743530247,0.569268857362,-0.0349546381944,-0.115632756186,0.285248481495,-0.00266844753799,-0.00731418426523,0.0728502535695,-0.00108313107065,0.04613544591393422,0.07807397120844113,1.1632875394322963
1765469933.5739756,5.009943246841431,-0.246109290203,0.57504438647,-0.0347945783672,-0.116121045752,0.286847899076,-0.00240562225625,-0.0110675451464,0.0742986627041,-0.00417484828064,0.04790767142846267,0.07784629590237457,1.167276422113017
1765469933.5951872,5.0311548709869385,-0.248512433965,0.580931787279,-0.034657630756,-0.116626573276,0.288473820168,-0.00223082781575,-0.014142712052,0.0754853591017,-0.00671369048479,0.04790767142846267,0.07784629590237457,1.167276422113017
1765469933.615245,5.051212787628174,-0.250885129661,0.586760713887,-0.0345406803824,-0.117139463917,0.290080861278,-0.00212917951563,-0.0166543974511,0.0764546099119,-0.00879235205084,0.04790767142846267,0.07784629590237457,1.167276422113017
1765469933.6352758,5.071243524551392,-0.253265320272,0.592622707743,-0.0344421297057,-0.117661357135,0.291691894025,-0.00208985067761,-0.0187074062552,0.0772468589921,-0.0104956265321,0.04790767142846267,0.07784629590237457,1.167276422113017
1765469933.6555853,5.091552972793579,-0.255654775678,0.598520372872,-0.0343598425979,-0.118190856191,0.293306913682,-0.00210239674809,-0.0203864264958,0.0778947871638,-0.0118921251064,0.04790767142846267,0.07784629590237457,1.167276422113017
1765469933.6771238,5.113091468811035,-0.258050821684,0.604445613837,-0.0342918427521,-0.118726101419,0.294923199099,-0.00215746807423,-0.0217597702775,0.0784247558349,-0.0130372750534,0.04790767142846267,0.07784629590237457,1.167276422113017
1765469933.6973126,5.133280277252197,-0.260455884013,0.610403251275,-0.0342364029548,-0.119266320901,0.296541554328,-0.00224735766724,-0.0228833440823,0.0788583391257,-0.0139765125685,0.04790767142846267,0.07784629590237457,1.167276422113017
1765469933.7160223,5.151989936828613,-0.262869204427,0.616390418909,-0.0336418432449,-0.119810395808,0.298160829691,-0.00105874412429,-0.0238026411944,0.079213092739,-0.014643169132,0.04790767142846267,0.07784629590237457,1.167276422113017
1765469933.7379122,5.173879861831665,-0.265294766628,0.62241623017,-0.0331339504081,-0.120358312583,0.299783123642,-0.000137405770872,-0.0245550148743,0.0795034311703,-0.0152097360883,0.04790767142846267,0.07784629590237457,1.167276422113017
1765469933.756815,5.192782640457153,-0.267729805237,0.628473151168,-0.0327016075236,-0.120908871115,0.301406169902,0.000556715721932,-0.0251707527508,0.0797410423122,-0.0156912558882,0.04790767142846267,0.07784629590237457,1.167276422113017
1765469933.7781985,5.214166164398193,-0.270177256889,0.634537357254,-0.0323223482128,-0.121460398748,0.302723992736,0.00133052307805,-0.0256552099988,0.0765486217307,-0.0127031080384,0.04653459134349905,0.0779310010697959,1.1694338489120901
1765469933.796917,5.232884645462036,-0.272632124502,0.640625335596,-0.0319998512397,-0.122013066299,0.304028272436,0.0019529052801,-0.0260516478777,0.0739362210521,-0.0102709885427,0.04653459134349905,0.0779310010697959,1.1694338489120901
1765469933.8167934,5.252761125564575,-0.275095350184,0.646737943661,-0.0317261933702,-0.12256670458,0.305321763511,0.00244604760841,-0.0263760319985,0.0717986319298,-0.00829205506757,0.04653459134349905,0.0779310010697959,1.1694338489120901
1765469933.8369842,5.27295184135437,-0.277572293215,0.652887310636,-0.031494391079,-0.123122173389,0.306609281974,0.00282909879245,-0.0266415352736,0.070049049024,-0.00668175730455,0.04653459134349905,0.0779310010697959,1.1694338489120901
1765469933.8597221,5.295689821243286,-0.280065965049,0.659079928965,-0.0311150766507,-0.123679895807,0.307893719943,0.00355443957225,-0.0268589159374,0.0686165789597,-0.00533671899594,0.04653459134349905,0.0779310010697959,1.1694338489120901
1765469933.8772752,5.3132429122924805,-0.282562258819,0.665279860059,-0.0307926810764,-0.124236619174,0.309168286656,0.00411975821395,-0.0270367700926,0.06744457613,-0.00424946516179,0.04653459134349905,0.0779310010697959,1.1694338489120901
1765469933.8990018,5.334969520568848,-0.285078036171,0.671528402111,-0.030518995675,-0.124795843228,0.310443180663,0.0045486832244,-0.0271823770994,0.0664850718457,-0.00337053836445,0.04653459134349905,0.0779310010697959,1.1694338489120901
1765469933.9175062,5.353473901748657,-0.287595719364,0.67778127367,-0.0302880371598,-0.12535361323,0.311709679226,0.00486248629302,-0.0273014965246,0.0657001123756,-0.00266097041496,0.04653459134349905,0.0779310010697959,1.1694338489120901
1765469933.9377096,5.3736772537231445,-0.290126282577,0.684065330142,-0.030093614285,-0.125912211519,0.312974291658,0.00507903818097,-0.0273989737114,0.0650577684361,-0.00208828571072,0.04653459134349905,0.0779310010697959,1.1694338489120901
1765469933.9577706,5.393738269805908,-0.292666745145,0.690372793393,-0.029930802888,-0.126470902631,0.314235950109,0.00521410788656,-0.0274787394402,0.064532137422,-0.00162632653623,0.04653459134349905,0.0779310010697959,1.1694338489120901
1765469933.9779239,5.413891553878784,-0.295175832498,0.696791281544,-0.0297984580069,-0.1265915876,0.316294463235,0.00520916529293,-0.0227129973145,0.0728887084118,-0.0021518269467,0.04579181074834073,0.07804974476489981,1.1731251233409945
1765469933.9980347,5.43400239944458,-0.297694041881,0.703238335998,-0.0296896553898,-0.126694829893,0.318383319654,0.0051450404338,-0.0188125776879,0.0797279650565,-0.0025864176345,0.04579181074834073,0.07804974476489981,1.1731251233409945
1765469934.018168,5.4541356563568115,-0.300219152324,0.709715248233,-0.0296012185905,-0.126783723575,0.320496556557,0.00503279138814,-0.01562051055,0.0853251490708,-0.00294574503821,0.04579181074834073,0.07804974476489981,1.1731251233409945
1765469934.038458,5.474425792694092,-0.302774558365,0.716287126016,-0.0295295781414,-0.126863600486,0.322646780308,0.00488080570734,-0.013004449825,0.0899123249156,-0.00324321220847,0.04579181074834073,0.07804974476489981,1.1731251233409945
1765469934.0584722,5.4944398403167725,-0.30531131531,0.722834489739,-0.0294739073695,-0.126931091767,0.3247973575,0.00469896921808,-0.010865041023,0.0936637073989,-0.00348878813692,0.04579181074834073,0.07804974476489981,1.1731251233409945
1765469934.0796828,5.515650510787964,-0.307852321258,0.729419027282,-0.0294310911416,-0.126990841302,0.326961294602,0.00449368286723,-0.00911498349211,0.0967323753224,-0.00369144586279,0.04579181074834073,0.07804974476489981,1.1731251233409945
1765469934.099013,5.534980773925781,-0.310410966198,0.736078565682,-0.0293988788033,-0.127045156593,0.329147068485,0.00427011677374,-0.00768199286442,0.0992450769315,-0.00385873387558,0.04579181074834073,0.07804974476489981,1.1731251233409945
1765469934.119076,5.555043697357178,-0.312958341564,0.742740999961,-0.0293764371533,-0.127093289256,0.331330864791,0.00403452941092,-0.00650997893331,0.101300164546,-0.00399648380854,0.04579181074834073,0.07804974476489981,1.1731251233409945
1765469934.1393232,5.57529091835022,-0.315528774048,0.749497802619,-0.029544977224,-0.127138142357,0.333538470623,0.00335352688013,-0.00555003937898,0.102983386764,-0.00414459205921,0.04579181074834073,0.07804974476489981,1.1731251233409945
1765469934.159719,5.595686674118042,-0.318081255524,0.756243466655,-0.0296948284929,-0.127178524465,0.335735964765,0.00275061709944,-0.00476510180446,0.104359748806,-0.00425949896006,0.04579181074834073,0.07804974476489981,1.1731251233409945
1765469934.1797373,5.6157050132751465,-0.320677995177,0.762955841237,-0.029832559517,-0.127628647285,0.337173221543,0.00210964642146,-0.00866396754588,0.0970569233704,-0.00567649600249,0.047620657564357786,0.0777676910383252,1.177450096951283
1765469934.2000952,5.636062860488892,-0.323311910741,0.769797313162,-0.0299553177145,-0.128095681569,0.338608728336,0.00152255730585,-0.0118600422144,0.0910704706604,-0.00683315111287,0.047620657564357786,0.0777676910383252,1.177450096951283
1765469934.223183,5.65915060043335,-0.326289246484,0.777572617813,-0.0300653634324,-0.128611218138,0.34025170463,0.000958596044164,-0.0145279241193,0.0860733568516,-0.0077947495734,0.047620657564357786,0.0777676910383252,1.177450096951283
1765469934.245437,5.6814045906066895,-0.328900901036,0.784401694861,-0.0301664372539,-0.129100357349,0.341615827188,0.000466287553382,-0.0166842619754,0.0820343978344,-0.00856749388615,0.047620657564357786,0.0777676910383252,1.177450096951283
1765469934.2635775,5.69954514503479,-0.331519585771,0.791265598899,-0.0302563026662,-0.129596201623,0.342967795874,1.92144379635e-05,-0.0184344495636,0.0787561843013,-0.00919083125699,0.047620657564357786,0.0777676910383252,1.177450096951283
1765469934.2837875,5.719755172729492,-0.334145609742,0.798161672706,-0.0320014175969,-0.13009759222,0.344309375939,-0.00433404062215,-0.0198589199307,0.0760880600009,-0.0100107701297,0.047620657564357786,0.0777676910383252,1.177450096951283
1765469934.3040545,5.7400221824646,-0.336778309829,0.805085388352,-0.0334985057835,-0.130603401865,0.345641571465,-0.00789747852767,-0.0210203536642,0.0739126201746,-0.0106161451767,0.047620657564357786,0.0777676910383252,1.177450096951283
1765469934.32432,5.760287761688232,-0.339479836764,0.812199014003,-0.0347888280758,-0.131123014777,0.347000094497,-0.010800962376,-0.0219717396701,0.0721306132055,-0.0110586847547,0.047620657564357786,0.0777676910383252,1.177450096951283
1765469934.3446224,5.780590057373047,-0.342130721461,0.819184583128,-0.0358886315756,-0.131636165903,0.348319133164,-0.0131213359855,-0.0227476822691,0.0706772229826,-0.0113732516503,0.047620657564357786,0.0777676910383252,1.177450096951283
1765469934.3652043,5.8011720180511475,-0.344966558738,0.826690343846,-0.0368512859141,-0.13206717687,0.349680526905,-0.015002840625,-0.022099864409,0.0689079433025,-0.0119325036813,0.04809902787516327,0.07749632324562453,1.1800235095126268
1765469934.3859465,5.821914196014404,-0.347626073238,0.833733766983,-0.0376521742633,-0.132464143865,0.350936904409,-0.0164430834187,-0.0215734593785,0.0674702587596,-0.0123525734551,0.04809902787516327,0.07749632324562453,1.1800235095126268
1765469934.4060423,5.842010021209717,-0.350293241021,0.840801652201,-0.0383303414751,-0.132859245275,0.35218811336,-0.0175266643302,-0.0211447234481,0.0662993219633,-0.0126659997642,0.04809902787516327,0.07749632324562453,1.1800235095126268
1765469934.4265687,5.862536430358887,-0.352967262923,0.84789185999,-0.0370599711366,-0.13325267589,0.353434647019,-0.0139402819852,-0.0207950022209,0.0653441851894,-0.012547944518,0.04809902787516327,0.07749632324562453,1.1800235095126268
1765469934.4460635,5.882031202316284,-0.355653263412,0.855017970587,-0.0359618096763,-0.133645496263,0.3546797403,-0.0109311654447,-0.0205093531234,0.0645640382146,-0.0124976748343,0.04809902787516327,0.07749632324562453,1.1800235095126268
1765469934.4664006,5.9023683071136475,-0.358345400244,0.862164477376,-0.035012827767,-0.134037011429,0.355921128224,-0.00841881052865,-0.0202759130194,0.063926481182,-0.0124963362508,0.04809902787516327,0.07749632324562453,1.1800235095126268
1765469934.4865177,5.9224853515625,-0.36104692071,0.869339990819,-0.0341937754356,-0.134427901353,0.357160881911,-0.00633401081528,-0.0200850310396,0.0634051562403,-0.012529409757,0.04809902787516327,0.07749632324562453,1.1800235095126268
1765469934.5068154,5.9427831172943115,-0.363754990122,0.876536974531,-0.0334878360044,-0.134817890569,0.358398073715,-0.0046170584455,-0.0199289148258,0.0629787813875,-0.012585853986,0.04809902787516327,0.07749632324562453,1.1800235095126268
1765469934.5266728,5.9626405239105225,-0.366473236018,0.883765065458,-0.0328805085415,-0.135207642932,0.359634751146,-0.00321625654653,-0.0198011856717,0.062629935499,-0.0126572517293,0.04809902787516327,0.07749632324562453,1.1800235095126268
1765469934.5468214,5.982789039611816,-0.369198616311,0.891016173086,-0.0323590947832,-0.135596811837,0.360869777992,-0.00208662458692,-0.0196966759929,0.0623445051913,-0.0127372974242,0.04809902787516327,0.07749632324562453,1.1800235095126268
1765469934.5671391,6.0031068325042725,-0.371953608305,0.898283429451,-0.0319070540589,-0.13618795075,0.3619842811,-0.0010706103563,-0.0218324654348,0.0607921619497,-0.0113441717974,0.044836443319166835,0.0774037950425011,1.1812407072888476
1765469934.5871642,6.023131847381592,-0.37471666443,0.905573612543,-0.0322534572302,-0.136786618639,0.363092928143,-0.00199043992127,-0.0235802657723,0.0595218185402,-0.0103585281865,0.044836443319166835,0.0774037950425011,1.1812407072888476
1765469934.6073377,6.043305397033691,-0.377488474622,0.912886087075,-0.0325534227782,-0.137391426168,0.364196710647,-0.00274941650533,-0.0250105634546,0.0584822437127,-0.00953948430778,0.044836443319166835,0.0774037950425011,1.1812407072888476
1765469934.6277437,6.063711404800415,-0.38028762295,0.920268043148,-0.0328130546834,-0.138004599738,0.365304008091,-0.00337109457158,-0.0261821739712,0.0576306889519,-0.00885784495123,0.044836443319166835,0.0774037950425011,1.1812407072888476
1765469934.6478784,6.083846092224121,-0.383079432331,0.927625980007,-0.0330363571206,-0.138618700013,0.36640065258,-0.00387187821292,-0.0271405064726,0.0569341497929,-0.00829101525359,0.044836443319166835,0.0774037950425011,1.1812407072888476
1765469934.6689782,6.10494589805603,-0.385881824455,0.935006052403,-0.0332281348234,-0.139236161906,0.367494652714,-0.00427005230488,-0.0279245357226,0.0563642984379,-0.00781933129582,0.044836443319166835,0.0774037950425011,1.1812407072888476
1765469934.6896439,6.1256115436553955,-0.388696222427,0.942410913595,-0.0333923530914,-0.13985658846,0.368586900162,-0.0045805531976,-0.0285660865069,0.0558980038657,-0.00742656694818,0.044836443319166835,0.0774037950425011,1.1812407072888476
1765469934.708535,6.144502639770508,-0.391523908246,0.949843030524,-0.0335325112161,-0.140479688902,0.369678154583,-0.00481636477076,-0.0290911410574,0.0555163815639,-0.00709932694451,0.044836443319166835,0.0774037950425011,1.1812407072888476
1765469934.7284596,6.164427280426025,-0.394363542504,0.957298130191,-0.0321849296513,-0.141104732152,0.37076808831,-0.00150371809576,-0.0295208585915,0.0552040525033,-0.00655010682182,0.044836443319166835,0.0774037950425011,1.1812407072888476
1765469934.7485461,6.184513807296753,-0.397212332699,0.964768284608,-0.0310245781364,-0.141730750487,0.371855796307,0.00120926216229,-0.0298724977001,0.0549484727243,-0.00614847854581,0.044836443319166835,0.0774037950425011,1.1812407072888476
1765469934.768028,6.203995704650879,-0.400026792876,0.972288095166,-0.0300228806291,-0.141861690245,0.373116649228,0.0035060166567,-0.0246866402819,0.0566396713012,-0.00462715702435,0.04726688990305438,0.07759688254391024,1.1840009406006602
1765469934.7888575,6.224825143814087,-0.402848605714,0.979823249994,-0.0291636437664,-0.141973215992,0.374382522409,0.00536476786355,-0.0204427393916,0.0580236814209,-0.00341746948357,0.04726688990305438,0.07759688254391024,1.1840009406006602
1765469934.808829,6.2447967529296875,-0.405682505671,0.987391442866,-0.0284281146792,-0.142069792033,0.375654921252,0.00684835594,-0.01696888821,0.0591565648962,-0.0024574664218,0.04726688990305438,0.07759688254391024,1.1840009406006602
1765469934.8290877,6.265055418014526,-0.408521873063,0.994979491549,-0.0278004279992,-0.142153454709,0.376930821893,0.00801129455285,-0.0141258020121,0.060083744906,-0.00169755797931,0.04726688990305438,0.07759688254391024,1.1840009406006602
1765469934.8493826,6.285350322723389,-0.411365185476,1.00258683735,-0.0272665348744,-0.142226561636,0.378209301237,0.00890107764868,-0.011799189718,0.0608424937654,-0.00109763108111,0.04726688990305438,0.07759688254391024,1.1840009406006602
1765469934.8695285,6.3054962158203125,-0.414213441853,1.0102189917,-0.0271805527412,-0.142291212611,0.379490569062,0.00868808046039,-0.00989512466783,0.0614634425967,-0.000694314197388,0.04726688990305438,0.07759688254391024,1.1840009406006602
1765469934.8896103,6.325577974319458,-0.417064223197,1.01787185647,-0.0271137686287,-0.142348835243,0.380773419476,0.00844259247171,-0.00833694170794,0.0619715932441,-0.000366981949562,0.04726688990305438,0.07759688254391024,1.1840009406006602
1765469934.9095733,6.345541000366211,-0.419919529728,1.02555270515,-0.02706311495,-0.142400861951,0.382058588367,0.00817255076256,-0.00706165337115,0.0623874870195,-0.00010114119401,0.04726688990305438,0.07759688254391024,1.1840009406006602
1765469934.9296834,6.3656511306762695,-0.422776456779,1.03325534174,-0.0270261825388,-0.142448186147,0.38334470474,0.0078847797709,-0.00601795479528,0.0627278553335,0.00011492326635,0.04726688990305438,0.07759688254391024,1.1840009406006602
1765469934.9498255,6.385793209075928,-0.425637390522,1.04098748363,-0.0270006611698,-0.142491777996,0.38463273235,0.00758490085561,-0.00516368292906,0.0630064482927,0.000290736162813,0.04726688990305438,0.07759688254391024,1.1840009406006602
1765469934.9693637,6.405331373214722,-0.428534358371,1.04876773639,-0.0269859667945,-0.14284789796,0.386090979395,0.00724993292607,-0.00794078248311,0.065088309586,8.86944633532e-05,0.05072332761927337,0.07798342373137843,1.1856375862485682
1765469934.9902103,6.426177978515625,-0.431431443038,1.05656619626,-0.0269794558508,-0.143214011916,0.387555477755,0.00691055980694,-0.0102135587651,0.0667921033743,-7.69325037991e-05,0.05072332761927337,0.07798342373137843,1.1856375862485682
1765469935.010349,6.446316719055176,-0.434352153602,1.06444469018,-0.0291802819418,-0.14358996183,0.389035414298,0.00133996440381,-0.0120755435313,0.0681879460289,-0.000627650646481,0.05072332761927337,0.07798342373137843,1.1856375862485682
1765469935.0306811,6.466648817062378,-0.437258523158,1.07229891052,-0.0310782951457,-0.14397128334,0.390511468137,-0.0032461809157,-0.0135986757776,0.069329766841,-0.000999865724692,0.05072332761927337,0.07798342373137843,1.1856375862485682
1765469935.0509145,6.486882209777832,-0.44022227038,1.08032219669,-0.0327164916103,-0.144363316471,0.392016827362,-0.0069953088196,-0.0148481641481,0.070266449673,-0.00123851916123,0.05072332761927337,0.07798342373137843,1.1856375862485682
1765469935.0709577,6.506925344467163,-0.443139242795,1.08823086828,-0.0341197976341,-0.144754798959,0.393500117736,-0.010011141647,-0.0158690471516,0.0710317577826,-0.00137522060804,0.05072332761927337,0.07798342373137843,1.1856375862485682
1765469935.0911558,6.52712345123291,-0.446064219279,1.09617268616,-0.035320280205,-0.145150099773,0.394986933184,-0.0124017040218,-0.0167037153274,0.0716574693691,-0.0014373255909,0.05072332761927337,0.07798342373137843,1.1856375862485682
1765469935.1115792,6.547546863555908,-0.448995756537,1.10414304568,-0.0363443891512,-0.145548375466,0.396475908264,-0.0142595157516,-0.0173863700938,0.0721692236319,-0.00144583622288,0.05072332761927337,0.07798342373137843,1.1856375862485682
1765469935.1315918,6.567559480667114,-0.451934310935,1.11214262869,-0.0372152650879,-0.145949106844,0.397966724256,-0.015664650894,-0.0179448314367,0.0725878759096,-0.00141688512798,0.05072332761927337,0.07798342373137843,1.1856375862485682
1765469935.1552408,6.591208457946777,-0.454903945321,1.12023665696,-0.0359361315309,-0.146354824217,0.399470907629,-0.0118901916204,-0.0184023160192,0.0729308306457,-0.000981650640501,0.05072332761927337,0.07798342373137843,1.1856375862485682
1765469935.1719162,6.607883930206299,-0.457877505524,1.12827793125,-0.0348204159172,-0.146948667363,0.400760550585,-0.00863584068631,-0.020859428112,0.0709603591591,4.54710008439e-05,0.047364349115383675,0.0775509596598632,1.1850114770762907
1765469935.1920428,6.628010511398315,-0.460860302002,1.13635046139,-0.033852010929,-0.147551495557,0.402043510681,-0.00587999398663,-0.0228694609994,0.0693484211025,0.000845770112802,0.047364349115383675,0.0775509596598632,1.1850114770762907
1765469935.2121623,6.648129940032959,-0.463850319868,1.14444581134,-0.0330124042801,-0.14816127862,0.40331972258,-0.00355668712639,-0.0245138459074,0.0680297130209,0.00146587285141,0.047364349115383675,0.0775509596598632,1.1850114770762907
1765469935.2322085,6.668176174163818,-0.466850700588,1.15257013464,-0.0322854618948,-0.14877707879,0.404591401774,-0.00160781833586,-0.0258593392297,0.066950699884,0.00194332472899,0.047364349115383675,0.0775509596598632,1.1850114770762907
1765469935.25294,6.688907623291016,-0.469906884931,1.16084492658,-0.0316558378514,-0.14940582792,0.405879331567,2.15391287621e-05,-0.0269628339216,0.0660657566075,0.00230927103011,0.047364349115383675,0.0775509596598632,1.1850114770762907
1765469935.2731557,6.709123373031616,-0.472948141847,1.16907626008,-0.0311120726831,-0.15003421772,0.407152245917,0.00136996994327,-0.0278656301843,0.0653417626559,0.00258620602346,0.047364349115383675,0.0775509596598632,1.1850114770762907
1765469935.2930276,6.728995323181152,-0.475978004699,1.17727261066,-0.0313789057936,-0.150661700393,0.408412612062,0.000730499159092,-0.0286033510505,0.0647501502764,0.00265446260651,0.047364349115383675,0.0775509596598632,1.1850114770762907
1765469935.3133037,6.749271392822266,-0.479026291295,1.18551383571,-0.0316082980968,-0.151293113096,0.409673819691,0.000210966911852,-0.0292067227526,0.0642662786865,0.0027197792201,0.047364349115383675,0.0775509596598632,1.1850114770762907
1765469935.3335178,6.7694854736328125,-0.482081820671,1.19376875007,-0.0318050508711,-0.151925812975,0.410931339939,-0.000205827819267,-0.0297001969857,0.0638705389445,0.00278133895656,0.047364349115383675,0.0775509596598632,1.1850114770762907
1765469935.3539038,6.789871454238892,-0.485195990156,1.20217554608,-0.0319737851969,-0.152569441143,0.412206898508,-0.000534754883645,-0.0301048016268,0.0635460678261,0.00283871150704,0.047364349115383675,0.0775509596598632,1.1850114770762907
1765469935.3738565,6.809824228286743,-0.488212580318,1.21050847197,-0.032116069441,-0.152539051448,0.413612350683,-0.000757608247085,-0.0230966442226,0.06491858868,0.00328369103559,0.04592878461334407,0.07692995210554875,1.186605378988703
1765469935.3945036,6.8304712772369385,-0.491310557239,1.2190627333,-0.0322372979655,-0.152492584278,0.415053583954,-0.000914386223798,-0.0173463392613,0.0660447639384,0.00365378058768,0.04592878461334407,0.07692995210554875,1.186605378988703
1765469935.4145687,6.850536346435547,-0.4943414398,1.22744184028,-0.032339066129,-0.152414869996,0.416467046194,-0.00101742357028,-0.0126526637631,0.0669640023531,0.00396014314713,0.04592878461334407,0.07692995210554875,1.186605378988703
1765469935.4366946,6.872662305831909,-0.497418926921,1.23596113064,-0.0320562738788,-0.15232345577,0.417901982867,-0.000198882697312,-0.00881041640679,0.0677164918191,0.00428420785816,0.04592878461334407,0.07692995210554875,1.186605378988703
1765469935.455255,6.891222715377808,-0.500460076271,1.24439823314,-0.0318111763713,-0.152215338388,0.419321912682,0.000491534182712,-0.00567280101103,0.0683309818075,0.00453861840587,0.04592878461334407,0.07692995210554875,1.186605378988703
1765469935.4755368,6.911504507064819,-0.503500927241,1.25285540539,-0.0315991150702,-0.152096144997,0.420742753415,0.00107215953263,-0.00310905939099,0.0688330808093,0.00473768651329,0.04592878461334407,0.07692995210554875,1.186605378988703
1765469935.49564,6.931607723236084,-0.50654349086,1.26134133612,-0.0314157939023,-0.151967965381,0.422165503072,0.00155816695265,-0.0010130145486,0.0692435831841,0.00489284837584,0.04592878461334407,0.07692995210554875,1.186605378988703
1765469935.5166361,6.952603816986084,-0.50958674581,1.26985580204,-0.0312575058147,-0.151832379887,0.423589785923,0.00196257599084,0.000701301677026,0.0695793254675,0.00501321183024,0.04592878461334407,0.07692995210554875,1.186605378988703
1765469935.536255,6.972222566604614,-0.512642347417,1.27843360349,-0.0311208378697,-0.151690564681,0.425021033861,0.00229715091548,0.00210460443663,0.0698541569519,0.00510610937698,0.04592878461334407,0.07692995210554875,1.186605378988703
1765469935.557117,6.993084669113159,-0.515710835558,1.28707846312,-0.0310029561999,-0.151543321815,0.426459619607,0.00257163861369,0.00325388198978,0.07007923857,0.00517733708406,0.04592878461334407,0.07692995210554875,1.186605378988703
1765469935.5780513,7.014019012451172,-0.518770359995,1.29569351924,-0.0309015170192,-0.15150361981,0.427838618191,0.00280376342357,0.00296855004241,0.06969512663,0.00536128762937,0.050473523109023935,0.07699553244739195,1.1876714423730619
1765469935.5986497,7.0346174240112305,-0.521826136089,1.30432979965,-0.0326503541361,-0.151464997424,0.429215066931,-0.00136790804939,0.00273518246965,0.0693809687801,0.00516156770975,0.050473523109023935,0.07699553244739195,1.1876714423730619
1765469935.6168358,7.0528035163879395,-0.52489526748,1.31303545812,-0.0341549875404,-0.151426966915,0.430597000088,-0.00476053397193,0.00254414462756,0.0691237949277,0.005060090066,0.050473523109023935,0.07699553244739195,1.1876714423730619
1765469935.636892,7.072859764099121,-0.527943208722,1.32171201509,-0.0354444485601,-0.151389975907,0.431968793455,-0.00748193289849,0.00238795242055,0.0689135300337,0.00503058199631,0.050473523109023935,0.07699553244739195,1.1876714423730619
1765469935.6573458,7.093313455581665,-0.531012873116,1.33048147204,-0.0365489646564,-0.151353194856,0.433350156732,-0.00963087685079,0.0022600619338,0.0687413647245,0.00505190543513,0.050473523109023935,0.07699553244739195,1.1876714423730619
1765469935.6773357,7.1133034229278564,-0.53405866033,1.33921326407,-0.037489206979,-0.15131722833,0.434720461302,-0.0112903497535,0.00215550000039,0.0686006041561,0.0051083013643,0.050473523109023935,0.07699553244739195,1.1876714423730619
1765469935.6977127,7.13368034362793,-0.537101766565,1.34796763574,-0.0382877071018,-0.151281658594,0.436089448524,-0.0125339786402,0.00206998691075,0.0684854870125,0.00518744172875,0.050473523109023935,0.07699553244739195,1.1876714423730619
1765469935.7181327,7.15410041809082,-0.540234505183,1.35701140204,-0.0389714230819,-0.151245182626,0.437498956273,-0.0134241095528,0.0019997231007,0.0683908983461,0.00528037631659,0.050473523109023935,0.07699553244739195,1.1876714423730619
1765469935.7381747,7.174142360687256,-0.543292879879,1.36587112889,-0.0382532237384,-0.151209967497,0.438874828127,-0.0109588524624,0.00194232349278,0.0683136273817,0.00562377458112,0.050473523109023935,0.07699553244739195,1.1876714423730619
1765469935.7584574,7.194425106048584,-0.54633694196,1.37471942908,-0.0376237806666,-0.151175131531,0.440244315617,-0.00882325849068,0.00189544106426,0.0682505145731,0.00587795313573,0.050473523109023935,0.07699553244739195,1.1876714423730619
1765469935.780088,7.216055631637573,-0.549457562473,1.38364711999,-0.0370737689614,-0.151751424377,0.441682383777,-0.00698586480066,-0.00486045654683,0.0688779101581,0.00589623144855,0.04942410448147821,0.07758935079145236,1.186749056529513
1765469935.798769,7.234736680984497,-0.552566565567,1.39256411005,-0.0365920898388,-0.152351799674,0.443116684775,-0.00540077224567,-0.0103831143703,0.0693907792593,0.005891153663,0.04942410448147821,0.07758935079145236,1.186749056529513
1765469935.8188703,7.254837989807129,-0.555677813605,1.40150425898,-0.0361710037075,-0.152971678269,0.444552030209,-0.0040355467299,-0.014899010872,0.0698101541063,0.00586953695495,0.04942410448147821,0.07758935079145236,1.186749056529513
1765469935.839172,7.275139570236206,-0.558792769812,1.4104665241,-0.035803141267,-0.153607392562,0.445987900024,-0.00286225161986,-0.0185924156945,0.0701531471492,0.0058366215799,0.04942410448147821,0.07758935079145236,1.186749056529513
1765469935.8593075,7.2952752113342285,-0.56191640475,1.41946101624,-0.035482029706,-0.154256421702,0.447425593651,-0.00185608319733,-0.0216141045451,0.0704337603783,0.00579642086561,0.04942410448147821,0.07758935079145236,1.186749056529513
1765469935.8792977,7.315265417098999,-0.565048884652,1.42848467867,-0.034285102932,-0.154916315613,0.448864394135,0.00118193793769,-0.0240866101415,0.0706633729604,0.00592487850937,0.04942410448147821,0.07758935079145236,1.186749056529513
1765469935.8992794,7.335247039794922,-0.568190943778,1.43753675416,-0.0332528138744,-0.15558509455,0.45030398711,0.00368468744559,-0.0261099136943,0.0708512697861,0.00598742785411,0.04942410448147821,0.07758935079145236,1.186749056529513
1765469935.919759,7.355726718902588,-0.571343384853,1.44661721105,-0.0323643531694,-0.156261153163,0.451744207179,0.00572667240946,-0.0277657166045,0.0710050381667,0.00600199501464,0.04942410448147821,0.07758935079145236,1.186749056529513
1765469935.9397519,7.3757195472717285,-0.574506931731,1.45572621816,-0.0316014627151,-0.156943183461,0.453184949189,0.00737291700284,-0.0291208232613,0.0711308819824,0.0059824846881,0.04942410448147821,0.07758935079145236,1.186749056529513
1765469935.9598022,7.395769834518433,-0.577683837182,1.46486870331,-0.0309480115888,-0.157630426858,0.454626876829,0.00868026118678,-0.0302299587165,0.0712338833492,0.00593960947377,0.04942410448147821,0.07758935079145236,1.186749056529513
1765469935.9803135,7.416281223297119,-0.580836662137,1.47408610523,-0.0303977985835,-0.157976878791,0.456567428864,0.00953259204785,-0.0273443738733,0.0768113612986,0.00382033713406,0.04503457002070112,0.07767796747672474,1.1866427964020188
1765469936.000343,7.436310768127441,-0.583999856318,1.48333199899,-0.0299310848116,-0.158312718378,0.458527813131,0.0101317336709,-0.024982812831,0.0813759661729,0.00206659278624,0.04503457002070112,0.07767796747672474,1.1866427964020188
1765469936.020552,7.456519603729248,-0.587199066734,1.49268553402,-0.0302695666694,-0.158643842139,0.460518396166,0.00877389914797,-0.0230477202748,0.0851162603071,0.000474771260899,0.04503457002070112,0.07767796747672474,1.1866427964020188
1765469936.0405302,7.4764978885650635,-0.590381614798,1.50199782568,-0.0305701227435,-0.158963891546,0.462509022663,0.00756412430507,-0.0214650142838,0.0881754348748,-0.000814823894291,0.04503457002070112,0.07767796747672474,1.1866427964020188
1765469936.0611353,7.497102975845337,-0.593637300028,1.51153340075,-0.030834782653,-0.159286560381,0.464546986143,0.00648122421751,-0.0201663509135,0.0906855902525,-0.00186237967393,0.04503457002070112,0.07767796747672474,1.1866427964020188
1765469936.0813227,7.517290353775024,-0.596841352128,1.52093144395,-0.0310712365713,-0.159596504107,0.466560700832,0.0055173174346,-0.0191052752344,0.0927365180624,-0.00270848238527,0.04503457002070112,0.07767796747672474,1.1866427964020188
1765469936.101711,7.5376787185668945,-0.600093014071,1.53048368123,-0.0312800049369,-0.159907255669,0.468605128772,0.00465577540585,-0.018236263229,0.0944162105898,-0.00339293286543,0.04503457002070112,0.07767796747672474,1.1866427964020188
1765469936.1217275,7.557695150375366,-0.603309035636,1.53994816594,-0.0314659785576,-0.160209798849,0.470630427329,0.00388929636471,-0.0175264216303,0.0957882464437,-0.00394428592791,0.04503457002070112,0.07767796747672474,1.1866427964020188
1765469936.142329,7.578296661376953,-0.606552667662,1.54951168627,-0.0316305408284,-0.160512020148,0.472672887277,0.00320499223845,-0.0169456676902,0.0969107718488,-0.00438861050046,0.04503457002070112,0.07767796747672474,1.1866427964020188
1765469936.1641765,7.600144147872925,-0.609787973188,1.5590697801,-0.0292046875966,-0.160810497426,0.474710249084,0.00870268015681,-0.016470894482,0.0978284496312,-0.0042601936258,0.04503457002070112,0.07767796747672474,1.1866427964020188
1765469936.1819012,7.617868900299072,-0.613024694716,1.56865146715,-0.0271258785745,-0.161096207402,0.476712364935,0.0131010465507,-0.0159657337964,0.0981833581558,-0.00443333624139,0.048734961615149765,0.07740773152748737,1.1865483873413754
1765469936.2025156,7.638483285903931,-0.616265487978,1.57826575577,-0.0253485521004,-0.161379880532,0.47871426857,0.0165728137627,-0.0155526084946,0.0984736057849,-0.00464846145156,0.048734961615149765,0.07740773152748737,1.1865483873413754
1765469936.2228842,7.658851861953735,-0.619513868259,1.58792367937,-0.0238329926664,-0.161662203483,0.480717981536,0.0192554976187,-0.0152146352769,0.0987110541443,-0.00488703753747,0.048734961615149765,0.07740773152748737,1.1865483873413754
1765469936.2426596,7.678627252578735,-0.622768157278,1.5976207804,-0.0225450745697,-0.161943289418,0.482722381006,0.021267973507,-0.0149381029232,0.0989053362658,-0.00513538094666,0.048734961615149765,0.07740773152748737,1.1865483873413754
1765469936.2636304,7.699598073959351,-0.626116774586,1.60762167811,-0.0214426250638,-0.162231426174,0.484781348382,0.0227116609549,-0.0147109089101,0.0990649549659,-0.00538443181223,0.048734961615149765,0.07740773152748737,1.1865483873413754
1765469936.2835288,7.719496488571167,-0.62938410519,1.61740260043,-0.0205245517724,-0.16251071803,0.486787582137,0.0236766360412,-0.0145253855805,0.0991952972768,-0.00562604571747,0.048734961615149765,0.07740773152748737,1.1865483873413754
1765469936.3047125,7.74068021774292,-0.632757743054,1.62752522083,-0.022511002709,-0.162798252424,0.488855501876,0.0176601423365,-0.0143730872332,0.099302296858,-0.0063817265103,0.048734961615149765,0.07740773152748737,1.1865483873413754
1765469936.3249388,7.760906457901001,-0.636036861536,1.63738746672,-0.024245780486,-0.163076296707,0.490862533883,0.0125621892347,-0.0142488766379,0.0993895629505,-0.00692487329376,0.048734961615149765,0.07740773152748737,1.1865483873413754
1765469936.3444922,7.780459880828857,-0.639323358413,1.64729480537,-0.0257495029563,-0.163354050744,0.492870839215,0.00825241612706,-0.01414744778,0.0994608233777,-0.00730552713805,0.048734961615149765,0.07740773152748737,1.1865483873413754
1765469936.3659937,7.801961421966553,-0.642614195085,1.65723824059,-0.0270522428639,-0.163631329155,0.494878539713,0.00462330700891,-0.0140645658141,0.0995190533966,-0.00756234873715,0.048734961615149765,0.07740773152748737,1.1865483873413754
1765469936.3849251,7.820892810821533,-0.645891554479,1.66718106464,-0.0281751272345,-0.163730044023,0.496515814512,0.00168069253569,-0.0120393842974,0.0955026936287,-0.00649601120608,0.049076158323870155,0.07696715313702579,1.1857655511389467
1765469936.4049563,7.840924024581909,-0.649181115365,1.67718473913,-0.0291452213129,-0.163822103058,0.498143048642,-0.000752175602499,-0.0103825472617,0.092216838234,-0.00558344433085,0.049076158323870155,0.07696715313702579,1.1857655511389467
1765469936.4262223,7.862190008163452,-0.65249255796,1.68727969079,-0.0299825136262,-0.163909205289,0.499768137033,-0.00274754183526,-0.00902588062875,0.0895262837144,-0.0048016694007,0.049076158323870155,0.07696715313702579,1.1857655511389467
1765469936.4459362,7.881903886795044,-0.655789726565,1.69735642221,-0.0307025185808,-0.163990296168,0.501373431162,-0.00436335180186,-0.0079163269742,0.0873258060675,-0.00413241493275,0.049076158323870155,0.07696715313702579,1.1857655511389467
1765469936.46595,7.9019176959991455,-0.659119972962,1.70756014933,-0.0302186503261,-0.16406871841,0.502986445488,-0.00303744681021,-0.00700748819526,0.0855233881227,-0.00335018409542,0.049076158323870155,0.07696715313702579,1.1857655511389467
1765469936.4857433,7.921710968017578,-0.66241647018,1.71768660231,-0.0297998728202,-0.164142181476,0.504573623591,-0.00192569617177,-0.00626473289568,0.0840503485567,-0.0027282913602,0.049076158323870155,0.07696715313702579,1.1857655511389467
1765469936.5060046,7.941972255706787,-0.665722080418,1.72786732473,-0.0294384616009,-0.164213253736,0.506158912081,-0.000999049463307,-0.00565722942366,0.0828455417363,-0.00223457552791,0.049076158323870155,0.07696715313702579,1.1857655511389467
1765469936.5261405,7.962108135223389,-0.669024847039,1.73806580703,-0.0291269849204,-0.164281967948,0.507737269904,-0.000232022645057,-0.00516037875087,0.0818601826283,-0.00184365811013,0.049076158323870155,0.07696715313702579,1.1857655511389467
1765469936.5464373,7.982404947280884,-0.672330394526,1.74829958177,-0.0288590119094,-0.164348926724,0.509312436639,0.000397653615309,-0.00475391512863,0.081054080002,-0.00153491093886,0.049076158323870155,0.07696715313702579,1.1857655511389467
1765469936.5673056,8.003273248672485,-0.675898133043,1.75935774244,-0.0286323833828,-0.164463571326,0.510970535878,0.000772172519416,-0.00488053950774,0.0799505223293,-0.00304026374756,0.04516405790632782,0.07709672424643654,1.183776569278821
1765469936.58831,8.024277687072754,-0.67921741823,1.76967236472,-0.028440879832,-0.164571395094,0.512501444975,0.00103917142492,-0.00498352757885,0.0790529599731,-0.00427290491382,0.04516405790632782,0.07709672424643654,1.183776569278821
1765469936.6086447,8.044612407684326,-0.68253000813,1.77999200051,-0.0295710749093,-0.164679300623,0.514025158496,-0.00185053971041,-0.00506742799069,0.0783217505183,-0.00552875530241,0.04516405790632782,0.07709672424643654,1.183776569278821
1765469936.628439,8.064406633377075,-0.685845822268,1.7903470689,-0.0305425632825,-0.164787524136,0.5155469768,-0.00423395279208,-0.00513588889303,0.0777250995844,-0.00651278887343,0.04516405790632782,0.07709672424643654,1.183776569278821
1765469936.6493576,8.085325241088867,-0.68916595346,1.80074067825,-0.0313769962325,-0.164896051403,0.517067812384,-0.00618487753921,-0.00519181392212,0.0772377013805,-0.00728188659011,0.04516405790632782,0.07709672424643654,1.183776569278821
1765469936.668881,8.104848623275757,-0.692505339558,1.81121954636,-0.0320936362509,-0.165005315453,0.518594959171,-0.00776743430435,-0.00523756209979,0.0768389965431,-0.00788136792129,0.04516405790632782,0.07709672424643654,1.183776569278821
1765469936.6889927,8.12496042251587,-0.695827186854,1.82166791238,-0.0327061456907,-0.165114118598,0.520111521441,-0.00903226040917,-0.00527495239262,0.0765131324021,-0.00834589352685,0.04516405790632782,0.07709672424643654,1.183776569278821
1765469936.7090359,8.1450035572052,-0.699152783303,1.83215237839,-0.0332291240039,-0.165223103862,0.521627693821,-0.0100271913727,-0.00530552867147,0.0762466538032,-0.00870411266179,0.04516405790632782,0.07709672424643654,1.183776569278821
1765469936.7292442,8.165211915969849,-0.702478242495,1.84266052929,-0.0336742227236,-0.165332123378,0.523141873926,-0.0107923442769,-0.00533053725623,0.0760286988108,-0.00897870365631,0.04516405790632782,0.07709672424643654,1.183776569278821
1765469936.7492907,8.185258388519287,-0.705806410345,1.8532012175,-0.0314843804277,-0.165441249023,0.524655537932,-0.00526553330276,-0.00535099751417,0.075850383428,-0.00870311576178,0.04516405790632782,0.07709672424643654,1.183776569278821
1765469936.7691371,8.20510482788086,-0.709215962653,1.86396149021,-0.0295851064507,-0.16573694423,0.526160881274,-0.000544366534205,-0.00739658654863,0.0753149799301,-0.00652213158982,0.04696715528355517,0.07735265402719316,1.1814641465043052
1765469936.7900872,8.226054906845093,-0.712593416417,1.87464154169,-0.0279485205951,-0.166039148058,0.527648147426,0.00333950364506,-0.00906996918427,0.0748769961019,-0.00480572469638,0.04696715528355517,0.07735265402719316,1.1814641465043052
1765469936.8100672,8.246034860610962,-0.715950349535,1.88527543817,-0.0265441379485,-0.166346139275,0.529122925533,0.0064984337718,-0.0104373170005,0.0745191124844,-0.00346162582416,0.04696715528355517,0.07735265402719316,1.1814641465043052
1765469936.831055,8.267022609710693,-0.719338220197,1.89602481754,-0.0253391281374,-0.166659750744,0.530608384654,0.00903885299902,-0.0115565328944,0.0742261738274,-0.00241112933506,0.04696715528355517,0.07735265402719316,1.1814641465043052
1765469936.8511915,8.287159204483032,-0.722702152741,1.90671342935,-0.024310991332,-0.166975485403,0.53208002706,0.0110480993998,-0.0124712258785,0.0739867660994,-0.00159527014393,0.04696715528355517,0.07735265402719316,1.1814641465043052
1765469936.8710773,8.307044982910156,-0.726128041061,1.917613663,-0.0234303811297,-0.167298858106,0.533575971303,0.0126069520142,-0.0132210236337,0.0737905173251,-0.00096263001031,0.04696715528355517,0.07735265402719316,1.1814641465043052
1765469936.8910236,8.326991319656372,-0.72950534623,1.92837206173,-0.0247081746591,-0.167620830089,0.535047344115,0.00897907904648,-0.0138335541724,0.0736301962697,-0.000858866707373,0.04696715528355517,0.07735265402719316,1.1814641465043052
1765469936.9114738,8.34744143486023,-0.732885587263,1.93915188477,-0.0258152661686,-0.1679447382,0.536516994581,0.00593093262455,-0.0143341957181,0.0734991605483,-0.000727995670363,0.04696715528355517,0.07735265402719316,1.1814641465043052
1765469936.9327495,8.368717193603516,-0.736272689932,1.94996493649,-0.0267732690145,-0.168270504869,0.537986655885,0.00338307600596,-0.0147436000249,0.0733920048615,-0.000581256116398,0.04696715528355517,0.07735265402719316,1.1814641465043052
1765469936.9518032,8.387770891189575,-0.739665585544,1.96080721339,-0.027601110485,-0.168597712273,0.539455866424,0.00126694272343,-0.0150784893729,0.0733043523931,-0.000426967885218,0.04696715528355517,0.07735265402719316,1.1814641465043052
1765469936.976131,8.41209864616394,-0.743069979127,1.97170500381,-0.0283199550125,-0.168942084161,0.541060596001,-0.000576496624829,-0.0155243485451,0.0747082174978,-0.00150546504763,0.04932541355714476,0.07704489247372089,1.1802556040016272
1765469936.9920778,8.428045511245728,-0.746491029264,1.98266631719,-0.0289400639482,-0.169289033621,0.542675024033,-0.0021044885497,-0.0158893710022,0.0758575541539,-0.00236295135214,0.04932541355714476,0.07704489247372089,1.1802556040016272
1765469937.012748,8.448715686798096,-0.749903754699,1.99361108244,-0.029473476103,-0.169635931334,0.544287035424,-0.00335926654292,-0.0161879544027,0.0767976958913,-0.003042359253,0.04932541355714476,0.07704489247372089,1.1802556040016272
1765469937.033749,8.469716787338257,-0.753327398984,2.00460096185,-0.0299316409811,-0.16998431991,0.545904406085,-0.00437976354408,-0.0164322884082,0.0775670239787,-0.00357946623681,0.04932541355714476,0.07704489247372089,1.1802556040016272
1765469937.0524075,8.488375186920166,-0.756754577748,2.01561225067,-0.0306908416736,-0.170333291104,0.54752313708,-0.00607027823123,-0.0166322091831,0.0781965092896,-0.00407193015265,0.04932541355714476,0.07704489247372089,1.1802556040016272
1765469937.073597,8.509564638137817,-0.760215509026,2.0267421377,-0.0313429754524,-0.170685634365,0.549156574303,-0.00742723097076,-0.0167959967673,0.0787122229688,-0.00444864446365,0.04932541355714476,0.07704489247372089,1.1802556040016272
1765469937.0928457,8.528813362121582,-0.763670750126,2.03786383828,-0.0319001070199,-0.171037360999,0.55078616725,-0.00849664385035,-0.0169300312239,0.0791342537539,-0.00473395686478,0.04932541355714476,0.07704489247372089,1.1802556040016272
1765469937.1130333,8.549000978469849,-0.76711811357,2.04897018803,-0.0323740636326,-0.171388117347,0.55241047601,-0.00932040437023,-0.017039638047,0.0794793698887,-0.00494768954985,0.04932541355714476,0.07704489247372089,1.1802556040016272
1765469937.1340702,8.570037841796875,-0.770576471195,2.06012193687,-0.0327766273084,-0.171739674673,0.554037922554,-0.00993620631265,-0.0171293110994,0.0797617210815,-0.005105954201,0.04932541355714476,0.07704489247372089,1.1802556040016272
1765469937.1535661,8.589533805847168,-0.774038951437,2.07129692943,-0.0331169100873,-0.172091274979,0.55566507955,-0.0103759617988,-0.0172026740014,0.0799927169306,-0.00522140854296,0.04932541355714476,0.07704489247372089,1.1802556040016272
1765469937.1727793,8.608747005462646,-0.77751948333,2.08251864659,-0.0334064369066,-0.172533114833,0.557371124456,-0.0107315331066,-0.018250771319,0.0810305114571,-0.00610073443948,0.047347279917271945,0.07686447995462482,1.1778333258321456
1765469937.1942616,8.630229234695435,-0.781102769462,2.0940815356,-0.0332861854045,-0.172989146947,0.559125941697,-0.0100920692639,-0.0191119446652,0.0818832194738,-0.00674333750174,0.047347279917271945,0.07686447995462482,1.1778333258321456
1765469937.214189,8.650156736373901,-0.784611852478,2.10541302872,-0.0331726064753,-0.173439647085,0.560845365158,-0.00951294032653,-0.0198155035881,0.0825798624162,-0.00727313223581,0.047347279917271945,0.07686447995462482,1.1778333258321456
1765469937.2349725,8.670940160751343,-0.788113715368,2.11672878193,-0.0330692206783,-0.17389093737,0.562560032075,-0.00899078443064,-0.0203901819966,0.083148891739,-0.00771026293924,0.047347279917271945,0.07686447995462482,1.1778333258321456
1765469937.2544835,8.69045114517212,-0.79162111712,2.12806948018,-0.032975713339,-0.174343937734,0.564275416571,-0.00852015240517,-0.0208598440635,0.0836139370302,-0.00807145521844,0.047347279917271945,0.07686447995462482,1.1778333258321456
1765469937.2745047,8.710472345352173,-0.795138150715,2.139447923,-0.032891259122,-0.174798743005,0.56599302354,-0.00809578084668,-0.0212438932846,0.0839942110495,-0.00837034485406,0.047347279917271945,0.07686447995462482,1.1778333258321456
1765469937.2950926,8.731060266494751,-0.79866318905,2.15085848443,-0.0328148974542,-0.175254844137,0.567711703483,-0.00771289647973,-0.0215580250533,0.0843052549045,-0.00861800963346,0.047347279917271945,0.07686447995462482,1.1778333258321456
1765469937.3150733,8.751040935516357,-0.802198788083,2.16230915098,-0.0327459157521,-0.175712295163,0.569432380518,-0.00736734378669,-0.0218150446596,0.0845597480095,-0.00882351634039,0.047347279917271945,0.07686447995462482,1.1778333258321456
1765469937.3370152,8.772982835769653,-0.805767414056,2.17387252733,-0.0321334649202,-0.176173686464,0.571165605217,-0.00574771452725,-0.022025570749,0.0847682046286,-0.00889041838934,0.047347279917271945,0.07686447995462482,1.1778333258321456
1765469937.354265,8.79023265838623,-0.809316660913,2.18537854051,-0.0316035683651,-0.176632313248,0.5728859604,-0.00440336239945,-0.0221977251905,0.0849386667927,-0.00896709114908,0.047347279917271945,0.07686447995462482,1.1778333258321456
1765469937.3784697,8.81443738937378,-0.812855008889,2.19698616954,-0.0311433191253,-0.176643909851,0.574460562032,-0.00322465485302,-0.0173776431094,0.0833321957137,-0.00814910896817,0.04492473543168137,0.07749945245990537,1.1741242082239378
1765469937.3957446,8.831712245941162,-0.816379101708,2.20855786014,-0.0307463705607,-0.176635536683,0.576019061097,-0.00224742772012,-0.0134355917496,0.0820183609294,-0.00749651869249,0.04492473543168137,0.07749945245990537,1.1741242082239378
1765469937.4160702,8.852037906646729,-0.819908604169,2.22016217217,-0.0304049522068,-0.17661298437,0.577572742001,-0.00144444433636,-0.0102108578085,0.0809435987725,-0.0069767493937,0.04492473543168137,0.07749945245990537,1.1741242082239378
1765469937.4361186,8.8720862865448,-0.82344048957,2.23179312961,-0.0301118560983,-0.176578726266,0.579121689597,-0.000791103357452,-0.00757267251489,0.0800643257012,-0.00656359369653,0.04492473543168137,0.07749945245990537,1.1741242082239378
1765469937.4566808,8.892648458480835,-0.826975387501,2.24345599304,-0.029860794873,-0.176534974607,0.580667399166,-0.000266048630254,-0.00541402226212,0.0793448754631,-0.0062358674407,0.04492473543168137,0.07749945245990537,1.1741242082239378
1765469937.476895,8.912862777709961,-0.830515263075,2.25515989841,-0.0307461434106,-0.176483506849,0.582211720231,-0.00246344116418,-0.00364735062636,0.0787560666335,-0.00618378991281,0.04492473543168137,0.07749945245990537,1.1741242082239378
1765469937.4966383,8.932605981826782,-0.834061905517,2.26691302308,-0.0315093470624,-0.176425699895,0.583756220923,-0.00426525576906,-0.00220114829022,0.0782740660807,-0.00610975697887,0.04492473543168137,0.07749945245990537,1.1741242082239378
1765469937.5166118,8.952579498291016,-0.837602641922,2.27867525433,-0.0321653645347,-0.176362520603,0.58529591769,-0.00572583176236,-0.00101775584967,0.0778796566705,-0.00602213725563,0.04492473543168137,0.07749945245990537,1.1741242082239378
1765469937.5365126,8.972480297088623,-0.841145436834,2.29047437123,-0.0327279961967,-0.176295057387,0.58683488919,-0.00689409002764,-4.9269554459e-05,0.0775568727018,-0.00592725817205,0.04492473543168137,0.07749945245990537,1.1741242082239378
1765469937.5568743,8.992841958999634,-0.844686399357,2.30229863854,-0.0332090449881,-0.176224073828,0.588371855485,-0.00781214976153,0.000743289859146,0.0772927228896,-0.00582980161997,0.04492473543168137,0.07749945245990537,1.1741242082239378
1765469937.5771475,9.013115167617798,-0.848275557057,2.31416459191,-0.0336262161345,-0.176636279356,0.590029831352,-0.0086713217529,-0.00396080641679,0.0784225483644,-0.0076580970431,0.04931297576261624,0.07764303013217427,1.1732227281949459
1765469937.5973146,9.033282279968262,-0.85190225339,2.32618301142,-0.0339836484652,-0.177066887187,0.591708037886,-0.00935713842127,-0.0078165126062,0.0793486082961,-0.00914209496393,0.04931297576261624,0.07764303013217427,1.1732227281949459
1765469937.6173537,9.053321361541748,-0.855500166684,2.33812739102,-0.0339192057074,-0.177510771546,0.593375487874,-0.00902029727927,-0.0109701327933,0.0801060418639,-0.010274264037,0.04931297576261624,0.07764303013217427,1.1732227281949459
1765469937.6376524,9.073620080947876,-0.859098588083,2.35009148827,-0.033860105476,-0.177965838346,0.595043961297,-0.00872009324115,-0.0135496158461,0.0807255797079,-0.0112028349316,0.04931297576261624,0.07764303013217427,1.1732227281949459
1765469937.6577146,9.093682289123535,-0.862702219858,2.36208768851,-0.0338062309725,-0.178430195719,0.59671459224,-0.0084528552458,-0.0156599381227,0.0812324349524,-0.0119648008378,0.04931297576261624,0.07764303013217427,1.1732227281949459
1765469937.6777894,9.113757133483887,-0.866312278123,2.37411733874,-0.0337572648857,-0.178902194113,0.598387132278,-0.00821512315374,-0.0173867055417,0.0816471683474,-0.0125903457663,0.04931297576261624,0.07764303013217427,1.1732227281949459
1765469937.6985238,9.134491443634033,-0.869931233597,2.38618648138,-0.0337129192952,-0.179380641659,0.600062052443,-0.0080038268308,-0.0187998799027,0.081986583253,-0.0131041501935,0.04931297576261624,0.07764303013217427,1.1732227281949459
1765469937.7186148,9.154582500457764,-0.873557414366,2.39828770729,-0.0336727682788,-0.179864196788,0.601738051579,-0.00781604899987,-0.0199564208441,0.0822643601823,-0.0135263314239,0.04931297576261624,0.07764303013217427,1.1732227281949459
1765469937.7380857,9.174053430557251,-0.877191511778,2.41042184128,-0.0336365004878,-0.180351947881,0.603415003085,-0.00764930315326,-0.0209029493507,0.0824916965199,-0.0138733688022,0.04931297576261624,0.07764303013217427,1.1732227281949459
1765469937.7592854,9.195253133773804,-0.881006682752,2.42316708018,-0.033054752994,-0.180863595677,0.605171650299,-0.00619303605991,-0.0216830633795,0.0826790635829,-0.0140551880687,0.04931297576261624,0.07764303013217427,1.1732227281949459
1765469937.781911,9.217878580093384,-0.884603782495,2.43531788204,-0.0325458245212,-0.180841770024,0.606419831188,-0.00492647507204,-0.016644167916,0.0781106631606,-0.0133977887004,0.04863839289730997,0.07691870857232157,1.1720915505219347
1765469937.799928,9.23589563369751,-0.888210829821,2.44751040804,-0.032108854291,-0.180802735147,0.607653431443,-0.00388706230518,-0.0125304988111,0.0743810982565,-0.0128793549842,0.04863839289730997,0.07691870857232157,1.1720915505219347
1765469937.8216267,9.257594347000122,-0.89186660984,2.45987961625,-0.0317340490449,-0.180751732046,0.608891326465,-0.00304228819046,-0.00916342328738,0.0713284155097,-0.0124704250945,0.04863839289730997,0.07691870857232157,1.1720915505219347
1765469937.8402078,9.276175498962402,-0.895480673871,2.47212459371,-0.0314126545675,-0.180685901304,0.610099881591,-0.0023612185516,-0.006413692123,0.0688354340411,-0.0121498787761,0.04863839289730997,0.07691870857232157,1.1720915505219347
1765469937.8608615,9.296829223632812,-0.899099281781,2.48440369468,-0.0311382868602,-0.180610513318,0.611300402922,-0.00182223329223,-0.00416627741378,0.0667978664073,-0.0118992765359,0.04863839289730997,0.07691870857232157,1.1720915505219347
1765469937.881798,9.317765712738037,-0.902717660457,2.49670310616,-0.0309046173053,-0.180527154046,0.612492991078,-0.00140384097603,-0.00232872648352,0.0651318924838,-0.0117040540834,0.04863839289730997,0.07691870857232157,1.1720915505219347
1765469937.9040701,9.340037822723389,-0.906340466947,2.50904052878,-0.0307062005252,-0.18043731983,0.613680895869,-0.00108794001089,-0.000825553592041,0.0637690748342,-0.0115525508486,0.04863839289730997,0.07691870857232157,1.1720915505219347
1765469937.92075,9.356717586517334,-0.90996062082,2.52139347302,-0.0305383027134,-0.180342101658,0.614862852625,-0.000858418001145,0.000404130434515,0.0626542096684,-0.0114355458371,0.04863839289730997,0.07691870857232157,1.1720915505219347
1765469937.9407203,9.376688003540039,-0.913580279522,2.53377052121,-0.0303968348642,-0.180242493538,0.616040694105,-0.000701793318613,0.00141024528019,0.0617420384358,-0.0113456500909,0.04863839289730997,0.07691870857232157,1.1720915505219347
1765469937.9608893,9.396857023239136,-0.917201817218,2.54618085178,-0.0302782163156,-0.180139254523,0.617216085133,-0.000606413742133,0.00223362330952,0.0609955413981,-0.0112769690954,0.04863839289730997,0.07691870857232157,1.1720915505219347
1765469937.9810686,9.417036294937134,-0.920824062944,2.55865356438,-0.030168153824,-0.180057609033,0.618791560327,-0.000321138706589,0.00263725057327,0.0648201578809,-0.00822404183616,0.0457333668459811,0.07658973327629112,1.1695837848814616
1765469938.0011103,9.43707799911499,-0.924448089139,2.57116214488,-0.0300746636468,-0.179974459995,0.620381909322,-6.85512281747e-05,0.0029676181692,0.0679505939694,-0.00572890838869,0.0457333668459811,0.07658973327629112,1.1695837848814616
1765469938.0213199,9.457287549972534,-0.928067707342,2.58368705888,-0.0299950321556,-0.179890164056,0.621982413681,0.000155843875379,0.00323797733647,0.070512413302,-0.00369013507099,0.0457333668459811,0.07658973327629112,1.1695837848814616
1765469938.041415,9.47738265991211,-0.931685210431,2.59623761043,-0.0299270118818,-0.179804904445,0.623591868991,0.00035557746956,0.00345923134832,0.0726089310959,-0.00202434956534,0.0457333668459811,0.07658973327629112,1.1695837848814616
1765469938.0615501,9.497517824172974,-0.935306806501,2.60883655927,-0.0280356964991,-0.17971873446,0.625211166197,0.00488827676458,0.00364034910764,0.0743251332206,-0.00031754000852,0.0457333668459811,0.07658973327629112,1.1695837848814616
1765469938.0817585,9.517726182937622,-0.938923418761,2.62145338094,-0.026409358706,-0.179631973364,0.626835285833,0.00858623529021,0.00378857669422,0.075729680737,0.00101244221797,0.0457333668459811,0.07658973327629112,1.1695837848814616
1765469938.1025705,9.538538217544556,-0.942538415337,2.63410054998,-0.0250140805521,-0.179544674523,0.628464481949,0.0115673493466,0.00390988870877,0.07687918666,0.0020435563768,0.0457333668459811,0.07658973327629112,1.1695837848814616
1765469938.1219943,9.55796194076538,-0.946151189815,2.64677658795,-0.0238201830185,-0.179456948045,0.630097587739,0.0139344740298,0.0040091713991,0.0778199511921,0.00283834393727,0.0457333668459811,0.07658973327629112,1.1695837848814616
1765469938.1420302,9.577997922897339,-0.949761915791,2.65948262052,-0.0228015866389,-0.179368869885,0.631733930972,0.0157773353962,0.00409042567694,0.0785898854314,0.00344693689993,0.0457333668459811,0.07658973327629112,1.1695837848814616
1765469938.1641061,9.60007381439209,-0.953415911507,2.67237917465,-0.0219310816121,-0.1792794599,0.633392874728,0.0171756888009,0.00415704992958,0.0792211911872,0.00391034215814,0.0457333668459811,0.07658973327629112,1.1695837848814616
1765469938.1843052,9.620272874832153,-0.957049878287,2.68509281801,-0.0211956295359,-0.179439552659,0.634420889381,0.0182300293267,0.00147251596603,0.0729747891629,0.00471260814001,0.046198408867768576,0.07691269149273366,1.169220796024884
1765469938.2025812,9.638548851013184,-0.960681850589,2.69783177076,-0.0216760780619,-0.179609339091,0.635425851245,0.0163513125909,-0.000723108407901,0.0678659871435,0.00513570129142,0.046198408867768576,0.07691269149273366,1.169220796024884
1765469938.222436,9.658403635025024,-0.964328982004,2.71065139716,-0.0221007298995,-0.179787207492,0.636417794894,0.0146950419656,-0.00252039632444,0.0636840386069,0.00549950041455,0.046198408867768576,0.07691269149273366,1.169220796024884
1765469938.24295,9.678917646408081,-0.967962413413,2.72344519933,-0.0224775804803,-0.179971488662,0.637389146319,0.0132367218533,-0.0039904693222,0.0602634572047,0.00581267464035,0.046198408867768576,0.07691269149273366,1.169220796024884
1765469938.2630627,9.69903039932251,-0.971599248241,2.73627011173,-0.0228108580062,-0.180161124527,0.638348751395,0.0119534556029,-0.00519324682332,0.0574648217917,0.00608267559575,0.046198408867768576,0.07691269149273366,1.169220796024884
1765469938.2830808,9.719048500061035,-0.975235949749,2.74911067427,-0.0231057115634,-0.180355055348,0.639297517254,0.0108249139607,-0.00617734053312,0.0551750221376,0.00631576879446,0.046198408867768576,0.07691269149273366,1.169220796024884
1765469938.3035567,9.739524364471436,-0.978873694173,2.76196864952,-0.023366423341,-0.180552493902,0.640237574092,0.00983311535398,-0.00698255798747,0.0533014336469,0.00651726102027,0.046198408867768576,0.07691269149273366,1.169220796024884
1765469938.3238835,9.759851217269897,-0.982516689206,2.7748569966,-0.023596746616,-0.180752942995,0.641171571128,0.0089619966247,-0.00764155186327,0.0517680797256,0.00669165831404,0.046198408867768576,0.07691269149273366,1.169220796024884
1765469938.3460543,9.78202199935913,-0.986160125219,2.78775705369,-0.0249000002454,-0.180955673267,0.642099248813,0.00558515799601,-0.00818082779342,0.0505132867867,0.00663558113007,0.046198408867768576,0.07691269149273366,1.169220796024884
1765469938.3650868,9.80105447769165,-0.989811861656,2.80069539635,-0.0260254424427,-0.181160591076,0.643023759985,0.00279150237351,-0.00862225638754,0.0494861660643,0.00663595275043,0.046198408867768576,0.07691269149273366,1.169220796024884
1765469938.3841019,9.820069551467896,-0.993462873208,2.81370305366,-0.0270029480432,-0.18136123157,0.644558860896,0.000337343765996,-0.00892055059076,0.0554222972224,0.0046354228225,0.04711647955811375,0.07728767289659523,1.1689189267153233
1765469938.4042215,9.840189218521118,-0.997118179956,2.82673539783,-0.0278447863149,-0.181562991465,0.646115772419,-0.00169058448406,-0.00916468603558,0.0602806551963,0.00303263779125,0.04711647955811375,0.07728767289659523,1.1689189267153233
1765469938.4242134,9.860181093215942,-1.00078139548,2.83980696527,-0.0285686071133,-0.181765856177,0.647691846322,-0.00335175934643,-0.00936453199007,0.064257640952,0.00175028547525,0.04711647955811375,0.07728767289659523,1.1689189267153233
1765469938.44425,9.880217790603638,-1.00445079433,2.85291300845,-0.0291896886058,-0.181969580054,0.649283416772,-0.00469782289739,-0.00952812468825,0.0675131776082,0.000726023002659,0.04711647955811375,0.07728767289659523,1.1689189267153233
1765469938.4644747,9.900442361831665,-1.00811928573,2.86602933293,-0.0297210766303,-0.18217365577,0.650885191054,-0.00577351849629,-0.00966199979319,0.0701773265361,-9.03558804992e-05,0.04711647955811375,0.07728767289659523,1.1689189267153233
1765469938.484927,9.920894622802734,-1.01180769356,2.87923127549,-0.031826292054,-0.182379074654,0.652502982031,-0.0105406203245,-0.0097716300699,0.0723589971634,-0.00105158569357,0.04711647955811375,0.07728767289659523,1.1689189267153233
1765469938.5049393,9.940907001495361,-1.01548146616,2.89239602473,-0.0336311760132,-0.182583903741,0.654121495241,-0.0143741024495,-0.00986130861488,0.0741436232115,-0.00176346143251,0.04711647955811375,0.07728767289659523,1.1689189267153233
1765469938.5251079,9.9610755443573,-1.01915966622,2.90559230426,-0.0351751489589,-0.182789081033,0.65574664672,-0.0174091853561,-0.00993468172638,0.0756037669508,-0.00228231993207,0.04711647955811375,0.07728767289659523,1.1689189267153233
1765469938.5451343,9.981101989746094,-1.02284625224,2.91883483674,-0.0364925763888,-0.182994762331,0.65737891697,-0.0197635215824,-0.00999473170856,0.0767987769994,-0.0026527736303,0.04711647955811375,0.07728767289659523,1.1689189267153233
1765469938.5666265,10.002594232559204,-1.02653235343,2.93209218135,-0.0376120472656,-0.183200415018,0.65901364537,-0.0215385078768,-0.0100438679031,0.0777765998748,-0.00290981840562,0.04711647955811375,0.07728767289659523,1.1689189267153233
1765469938.5855396,10.021507263183594,-1.03024481054,2.94537996461,-0.0385677467808,-0.183636672345,0.660675569698,-0.0229925713284,-0.0126222627837,0.0788416797144,-0.00519708934148,0.048585450087077035,0.0771986151252673,1.168370315530767
1765469938.6058156,10.041783332824707,-1.03396245338,2.95870026783,-0.0393750006181,-0.184082295001,0.662341432859,-0.0240397518435,-0.0147323383005,0.07971330683,-0.00703583395569,0.048585450087077035,0.0771986151252673,1.168370315530767
1765469938.6258957,10.061863422393799,-1.03768637687,2.97205424821,-0.0380380584491,-0.184535616754,0.66401063434,-0.0199554313636,-0.0164592704713,0.0804266656151,-0.00813311550488,0.048585450087077035,0.0771986151252673,1.168370315530767
1765469938.6463385,10.082306146621704,-1.04142528099,2.98547093814,-0.0368729211524,-0.184996011124,0.665686092669,-0.0164801097288,-0.0178731374837,0.0810107038716,-0.00907936680267,0.048585450087077035,0.0771986151252673,1.168370315530767
1765469938.6662817,10.102249383926392,-1.04516301068,2.99889034446,-0.0358581480985,-0.185460795381,0.667360029066,-0.0135362676727,-0.0190301120536,0.0814886253485,-0.00989554001901,0.048585450087077035,0.0771986151252673,1.168370315530767
1765469938.6862233,10.122190952301025,-1.04890827175,3.01234226611,-0.034976294258,-0.185929771809,0.669035644497,-0.0110543956417,-0.0199769334892,0.0818797370553,-0.0105998118122,0.048585450087077035,0.0771986151252673,1.168370315530767
1765469938.7061255,10.142093181610107,-1.05266278847,3.02583165875,-0.0342111891014,-0.186402324222,0.670713211055,-0.00897312862068,-0.0207518505462,0.082199838736,-0.011207730186,0.048585450087077035,0.0771986151252673,1.168370315530767
1765469938.7262743,10.16224193572998,-1.05643023206,3.03937071047,-0.0335485225418,-0.186878219108,0.672393948846,-0.00723858649266,-0.0213861930351,0.0824618720659,-0.011732630215,0.048585450087077035,0.0771986151252673,1.168370315530767
1765469938.748085,10.18405270576477,-1.06019995584,3.0529202779,-0.0329755448984,-0.187355709002,0.674072835249,-0.00580389372654,-0.0219052827982,0.082676296957,-0.0121857855909,0.048585450087077035,0.0771986151252673,1.168370315530767
1765469938.7663443,10.202311992645264,-1.06399394314,3.06667660545,-0.0324622726486,-0.187404966827,0.675374000801,-0.00421501424896,-0.0175157497076,0.0783939157228,-0.00743057561544,0.04533398838982089,0.07676652556078035,1.1682697811996166
1765469938.7876704,10.22363805770874,-1.06773872008,3.0802616118,-0.0318326079063,-0.18743183443,0.676634832914,-0.00239474400443,-0.0139275121516,0.0748932697869,-0.00352701594145,0.04533398838982089,0.07676652556078035,1.1682697811996166
1765469938.8072097,10.24317741394043,-1.07148880387,3.09387536093,-0.0312881658432,-0.187445739315,0.677882857957,-0.000837974562806,-0.0109931858379,0.0720305726204,-0.000357126422183,0.04533398838982089,0.07676652556078035,1.1682697811996166
1765469938.8277392,10.263706922531128,-1.07526541236,3.10759793738,-0.0308171124714,-0.187450156229,0.679128803304,0.00049147440293,-0.00859086774048,0.0696868969431,0.00221886029811,0.04533398838982089,0.07676652556078035,1.1682697811996166
1765469938.8478842,10.283851861953735,-1.07902330595,3.12126821575,-0.0304101008412,-0.187444644653,0.680357768926,0.00162219160429,-0.00662639642062,0.067770379869,0.00430865849691,0.04533398838982089,0.07676652556078035,1.1682697811996166
1765469938.8694477,10.305415391921997,-1.08288068386,3.13531772074,-0.0300566253636,-0.18743492792,0.68161426199,0.00258604622041,-0.00501339825299,0.0661967562189,0.00601030909813,0.04533398838982089,0.07676652556078035,1.1682697811996166
1765469938.8926432,10.328610897064209,-1.08664270875,3.14904034492,-0.029752844341,-0.187416125864,0.682830013084,0.0033968580459,-0.00369655035064,0.06491205358,0.0073869445515,0.04533398838982089,0.07676652556078035,1.1682697811996166
1765469938.9085639,10.344531536102295,-1.09040750228,3.16279373919,-0.0294911801104,-0.187392709147,0.684041656807,0.00407799601615,-0.00262052591183,0.0638622957198,0.0085010349327,0.04533398838982089,0.07676652556078035,1.1682697811996166
1765469938.9288635,10.36483120918274,-1.09417497092,3.1765787945,-0.0314695393749,-0.187365491696,0.68525010415,-0.000584728011925,-0.00174075850211,0.0630040041047,0.0089867805291,0.04533398838982089,0.07676652556078035,1.1682697811996166
1765469938.9488802,10.38484787940979,-1.09796332857,3.1904632688,-0.0331706327226,-0.187335263457,0.68646220621,-0.00436178789588,-0.00102064906809,0.0623014730921,0.00945450530863,0.04533398838982089,0.07676652556078035,1.1682697811996166
1765469938.9686086,10.404576301574707,-1.1017505396,3.20427575837,-0.0346380846281,-0.187486887645,0.687434391307,-0.00759386046197,-0.00246193598806,0.0591910769471,0.00720523763994,0.045106774975755895,0.07649189539574433,1.168455669843704
1765469938.9893157,10.425283432006836,-1.10553904491,3.21811371587,-0.0358939571355,-0.187643679582,0.688395547078,-0.0101840016167,-0.00364082526527,0.0566469529338,0.00541726581943,0.045106774975755895,0.07649189539574433,1.168455669843704
1765469939.009623,10.445590734481812,-1.10932647073,3.23196556864,-0.0369659335816,-0.187804653876,0.689346815814,-0.0122259861743,-0.00460517463851,0.0545658207655,0.00399886459189,0.045106774975755895,0.07649189539574433,1.168455669843704
1765469939.030394,10.46636176109314,-1.11311307755,3.24582991859,-0.0378782449069,-0.187969016681,0.690289864551,-0.013801193089,-0.00539408733219,0.0528632929987,0.00287608319627,0.045106774975755895,0.07649189539574433,1.168455669843704
1765469939.049695,10.485662698745728,-1.11690515204,3.25972793696,-0.0386525455288,-0.188136307283,0.691227732947,-0.0149803015844,-0.00603967803558,0.0514700639287,0.00198913035972,0.045106774975755895,0.07649189539574433,1.168455669843704
1765469939.0705514,10.506519079208374,-1.12070099556,3.27365183412,-0.0374737604823,-0.188305978389,0.692160925417,-0.011469806117,-0.00656803698254,0.0503298290393,0.00163585175984,0.045106774975755895,0.07649189539574433,1.168455669843704
1765469939.0904334,10.526401042938232,-1.12453713857,3.28773467916,-0.0364480604284,-0.188478939138,0.693099906197,-0.0084876168212,-0.0070010903688,0.0493952700945,0.00130437900028,0.045106774975755895,0.07649189539574433,1.168455669843704
1765469939.1102643,10.546231985092163,-1.12836065403,3.30178089571,-0.0355554781912,-0.188652996095,0.694031215537,-0.00596987239345,-0.00735552634271,0.048630372924,0.000996263475688,0.045106774975755895,0.07649189539574433,1.168455669843704
1765469939.1306605,10.566628217697144,-1.13216336332,3.31575944754,-0.0347811388362,-0.188827434974,0.694953565184,-0.00385812193401,-0.00764528764596,0.048005048134,0.000712223108214,0.045106774975755895,0.07649189539574433,1.168455669843704
1765469939.1507127,10.58668041229248,-1.13597506224,3.32977922413,-0.0341110187885,-0.189003155467,0.695875163668,-0.00209645471468,-0.00788231861227,0.047493519032,0.000452160481654,0.045106774975755895,0.07649189539574433,1.168455669843704
1765469939.1700993,10.606066942214966,-1.13974581226,3.34382211321,-0.0335360152768,-0.188811474046,0.697085592576,-0.000722295084275,-0.00402741748694,0.0502928169876,-0.000839433492767,0.048413946674065136,0.07662943102129012,1.1689531483353308
1765469939.1925511,10.62851881980896,-1.14351872148,3.35788659089,-0.0330409547936,-0.188605956469,0.698306170333,0.000387744049393,-0.000873718267058,0.0525829259922,-0.00191659944149,0.048413946674065136,0.07662943102129012,1.1689531483353308
1765469939.2112713,10.647238969802856,-1.14732100486,3.37207951921,-0.0335332406248,-0.188388944592,0.699543253254,-0.000908032551176,0.00170962636963,0.0544588629164,-0.00298971952524,0.048413946674065136,0.07662943102129012,1.1689531483353308
1765469939.2313397,10.667307376861572,-1.15109312536,3.38618487399,-0.0339578564586,-0.188162559915,0.700778793668,-0.00198785554049,0.00382221240901,0.0559929509744,-0.003849776427,0.048413946674065136,0.07662943102129012,1.1689531483353308
1765469939.2525768,10.688544511795044,-1.15487149802,3.4003416332,-0.0343237432963,-0.187928392707,0.702022167831,-0.00288227414454,0.00555084380797,0.0572482242444,-0.00453847761875,0.048413946674065136,0.07662943102129012,1.1689531483353308
1765469939.271868,10.707835674285889,-1.15863984722,3.41449228962,-0.0346382514397,-0.187688181945,0.703267710214,-0.00361654987123,0.00696490370287,0.0582750663978,-0.00508890507368,0.048413946674065136,0.07662943102129012,1.1689531483353308
1765469939.2916243,10.72759199142456,-1.16241017304,3.42868431375,-0.0349082715081,-0.187442686642,0.704518434981,-0.00421364681621,0.00812206868115,0.0591153602089,-0.00552823854355,0.048413946674065136,0.07662943102129012,1.1689531483353308
1765469939.3122451,10.748212814331055,-1.16617465701,3.44289055315,-0.0351394532331,-0.187193098283,0.70577139608,-0.00469292921719,0.00906893380253,0.0598029414237,-0.0058782255603,0.048413946674065136,0.07662943102129012,1.1689531483353308
1765469939.3326921,10.768659830093384,-1.16999594155,3.45734959738,-0.0353384498895,-0.186936976592,0.70704630641,-0.00507340293569,0.00984562046438,0.0603669448349,-0.00615716886159,0.048413946674065136,0.07662943102129012,1.1689531483353308
1765469939.3527014,10.788669109344482,-1.17375600116,3.47161724881,-0.0347718261182,-0.186680838515,0.708304949917,-0.00362086945041,0.0104804759036,0.0608279552409,-0.00623951263604,0.048413946674065136,0.07662943102129012,1.1689531483353308
1765469939.3722317,10.808199405670166,-1.17757312469,3.4859628167,-0.0342835182301,-0.187010471209,0.710020997734,-0.00243155908997,0.0045281326333,0.0662125310472,-0.00642709763776,0.04895623701222172,0.07704849606357089,1.1699387842547693
1765469939.3929284,10.828896045684814,-1.18138191424,3.50031133823,-0.0338632822446,-0.18736172196,0.71175425475,-0.00146210339599,-0.000339431370932,0.0706157998411,-0.00659790254731,0.04895623701222172,0.07704849606357089,1.1699387842547693
1765469939.4134383,10.849406003952026,-1.1851893771,3.51468352833,-0.0335025133612,-0.18773040687,0.713502813597,-0.000681321077958,-0.00432085003426,0.074217448744,-0.00675253167387,0.04895623701222172,0.07704849606357089,1.1699387842547693
1765469939.4347568,10.870724439620972,-1.18900577166,3.52911359103,-0.0331935110402,-0.188113631236,0.715267274163,-6.20061580886e-05,-0.00757909698297,0.0771649060552,-0.00689181778632,0.04895623701222172,0.07704849606357089,1.1699387842547693
1765469939.453467,10.889434576034546,-1.19281811422,3.54354825162,-0.0329296834995,-0.18850840413,0.717039566681,0.000419682471295,-0.0102447607519,0.0795763040519,-0.00701666807487,0.04895623701222172,0.07704849606357089,1.1699387842547693
1765469939.4736328,10.909600496292114,-1.19666079388,3.55811513239,-0.0327049239396,-0.188914412668,0.718831812664,0.000783633108993,-0.0124281666896,0.0815514446401,-0.00712816285972,0.04895623701222172,0.07704849606357089,1.1699387842547693
1765469939.4968722,10.93283987045288,-1.20076349002,3.57368606714,-0.0351094036256,-0.189347061986,0.720742851968,-0.00512414529549,-0.0142334000473,0.0831844848431,-0.00772306021166,0.04895623701222172,0.07704849606357089,1.1699387842547693
1765469939.515282,10.951249599456787,-1.20459110468,3.58822242851,-0.0371689950928,-0.189767191936,0.722538099609,-0.00992066703154,-0.0157013441046,0.0845124082669,-0.00811860158074,0.04895623701222172,0.07704849606357089,1.1699387842547693
