timestamp_abs,timestamp_rel,x,y,z,vx,vy,vz,ax,ay,az,roll,pitch,yaw
1765471498.4845233,0.9519891738891602,-2.00386912006e-13,1.68777020984e-13,-0.077974665095,-2.80161208858e-08,2.35967378074e-08,-1.07842401897e-06,-0.00195849681439,0.00164955512628,0.0025873879963,0.03596755512866053,-0.06661449306756025,1.3264133467345929
1765471498.497275,0.9647409915924072,-4.78272188784e-07,4.02827482266e-07,-0.0783739552344,-4.73201385811e-05,3.98556569504e-05,-0.000707161243608,-0.00236409658135,0.00199117384626,0.00312171172022,0.03596755512866053,-0.06661449306756025,1.3264133467345929
1765471498.517373,0.9848389625549316,-2.04020640327e-06,1.71837549413e-06,-0.0785267928643,-0.000101389811754,8.53961479548e-05,-0.00131075045204,-0.00254335137023,0.00214215221586,0.00335680510032,0.03596755512866053,-0.06661449306756025,1.3264133467345929
1765471498.5377173,1.005183219909668,-4.75268211723e-06,4.00297365431e-06,-0.0786208077268,-0.00015780129634,0.000132909042996,-0.00173283203519,-0.00264621207239,0.00222878722965,0.00349156280692,0.03596755512866053,-0.06661449306756025,1.3264133467345929
1765471498.5574021,1.0248680114746094,-8.62138010376e-06,7.26140662638e-06,-0.0800364201517,-0.000215155823698,0.000181216221197,-0.0133169116214,-0.00271367325444,0.00228560679549,0.00352901965296,0.03596755512866053,-0.06661449306756025,1.3264133467345929
1765471498.5773332,1.0447990894317627,-1.36575556904e-05,1.15031542742e-05,-0.0811413257041,-0.000273102893815,0.00023002247192,-0.0204805782921,-0.0027615436672,0.002325925924,0.00356786970733,0.03596755512866053,-0.06661449306756025,1.3264133467345929
1765471498.5973642,1.0648300647735596,-5.18643002143e-06,8.94711270863e-06,-0.0819760029188,-5.71338482423e-05,0.000133693642034,-0.0238824533208,0.000878001777552,0.000407219179007,0.00462756041559,0.03607657412459645,-0.06667028629239741,1.3265417110991347
1765471498.6180162,1.085482120513916,7.14743818457e-06,4.70539907092e-06,-0.082580573562,0.000181819498357,2.52310747106e-05,-0.0247263570964,0.00367768833995,-0.00106872818109,0.00545559219197,0.03607657412459645,-0.06667028629239741,1.3265417110991347
1765471498.6380157,1.1054816246032715,2.35104086781e-05,-1.29976446265e-06,-0.0830037044664,0.000436939357067,-9.17023428988e-05,-0.0240430515299,0.00587751293998,-0.00222843846964,0.00611605653458,0.03607657412459645,-0.06667028629239741,1.3265417110991347
1765471498.6579697,1.1254355907440186,4.40409129315e-05,-9.15467818359e-06,-0.0832891287668,0.000703335989419,-0.000214620514085,-0.0225720341125,0.00762898629903,-0.00315178557402,0.00664892586218,0.03607657412459645,-0.06667028629239741,1.3265417110991347
1765471498.678115,1.145580768585205,6.89254681785e-05,-1.89531209938e-05,-0.0834759917672,0.000978182854131,-0.000341998483394,-0.0207685245527,0.0090362626781,-0.00389367785744,0.00708195587155,0.03607657412459645,-0.06667028629239741,1.3265417110991347
1765471498.6985126,1.1659784317016602,9.83958795158e-05,-3.08107591001e-05,-0.0824259988233,0.00125977210249,-0.000472904785165,-0.012181963378,0.0101741769816,-0.00449356701461,0.00750881798714,0.03607657412459645,-0.06667028629239741,1.3265417110991347
1765471498.7181642,1.1856300830841064,0.000132616619484,-4.48197372095e-05,-0.0815924029445,0.00154635545186,-0.00060644700412,-0.0062580902449,0.011097922712,-0.00498055012569,0.00783664491114,0.03607657412459645,-0.06667028629239741,1.3265417110991347
1765471498.7387247,1.206190586090088,0.000171984537058,-6.11626880014e-05,-0.0809300714856,0.00183820465983,-0.000742665513603,-0.00215840856042,0.0118504411287,-0.00537726509564,0.00808856362299,0.03607657412459645,-0.06667028629239741,1.3265417110991347
1765471498.7588117,1.2262775897979736,0.000216248768462,-7.97611038904e-05,-0.0804027718649,0.00213168404719,-0.000879856898406,0.000676632889261,0.0124636964191,-0.00570056290303,0.00828128332394,0.03607657412459645,-0.06667028629239741,1.3265417110991347
1765471498.779863,1.2473289966583252,0.000265736935338,-0.000100763771675,-0.0799819406749,0.00242745506639,-0.0010182673873,0.00263733966885,0.0129641198169,-0.00596437764675,0.00842815063517,0.03607657412459645,-0.06667028629239741,1.3265417110991347
1765471498.7997797,1.2672455310821533,0.000284326942551,-0.000116978767372,-0.0796476906827,0.0023299706791,-0.00107828902692,0.00389807679958,0.00896984972941,-0.00529286106122,0.0072037827518,0.03610201147419591,-0.06689547736850962,1.3265072231630182
1765471498.8192792,1.2867450714111328,0.00030595890785,-0.000135343150289,-0.0793792022699,0.00221759355719,-0.00113627974676,0.00472545753977,0.00570143191436,-0.00474337474128,0.00619471160762,0.03610201147419591,-0.06689547736850962,1.3265072231630182
1765471498.8396132,1.3070790767669678,0.000328944463414,-0.000155355877819,-0.0786978228146,0.00209130008943,-0.00119129557636,0.00700150758092,0.00303084932669,-0.00429439646456,0.00541255751514,0.03610201147419591,-0.06689547736850962,1.3265072231630182
1765471498.8596811,1.3271470069885254,0.000352783151254,-0.000177047450389,-0.0781465038386,0.00195494280699,-0.00124461677056,0.00854024801743,0.000847595326369,-0.00392734785756,0.00475739972277,0.03610201147419591,-0.06689547736850962,1.3265072231630182
1765471498.879905,1.3473708629608154,0.000376711654325,-0.00020028464444,-0.077699907008,0.00181041240706,-0.00129654314574,0.00954462835753,-0.000937829802014,-0.00362718223038,0.00420834925076,0.03610201147419591,-0.06689547736850962,1.3265072231630182
1765471498.899827,1.367292881011963,0.000400116066314,-0.000224975987185,-0.0773379774182,0.00165922819314,-0.00134737614849,0.0101598780782,-0.00239837497878,-0.00338163541241,0.0037480054941,0.03610201147419591,-0.06689547736850962,1.3265072231630182
1765471498.920483,1.387948989868164,0.000422430087934,-0.000251005693803,-0.0770451101314,0.00150265730369,-0.00139725571742,0.010490760689,-0.00359322347632,-0.00318075751339,0.00336197532346,0.03610201147419591,-0.06689547736850962,1.3265072231630182
1765471498.9401846,1.4076504707336426,0.00044324881123,-0.000278335111165,-0.0768084773076,0.00134162150035,-0.00144643698309,0.0106136041378,-0.00457095770724,-0.00301638085936,0.00303817426546,0.03610201147419591,-0.06689547736850962,1.3265072231630182
1765471498.960861,1.4283268451690674,0.000462178223377,-0.000306883842228,-0.0766181289086,0.00117696607127,-0.00149501152214,0.0105843511048,-0.00537106822256,-0.00288186629987,0.0027665881928,0.03610201147419591,-0.06689547736850962,1.3265072231630182
1765471498.9821603,1.4496262073516846,0.00047890745985,-0.000336597114,-0.076465930651,0.00100936449988,-0.00154308534155,0.0104444188241,-0.00602583535757,-0.00277178686578,0.00253885769791,0.03610201147419591,-0.06689547736850962,1.3265072231630182
1765471499.0009332,1.4683990478515625,0.000500129160628,-0.000356488755504,-0.0771528764806,0.000908022784602,-0.00147973640718,0.0079177505248,-0.00579968349859,-0.001455728621,0.002424813699,0.03606813939408146,-0.0668082172309175,1.3264843199776435
1765471499.0212674,1.4887332916259766,0.000518921172915,-0.000376851717174,-0.0777370444647,0.000807964091317,-0.00141135420185,0.00587925432659,-0.00561466142088,-0.000379019227842,0.00235113211012,0.03606813939408146,-0.0668082172309175,1.3264843199776435
1765471499.0414848,1.5089507102966309,0.00053543315234,-0.000397372499606,-0.0782338048361,0.000708584583841,-0.00133902727196,0.00423448653561,-0.00546327267229,0.000501965839652,0.00230788938687,0.03606813939408146,-0.0668082172309175,1.3264843199776435
1765471499.0613127,1.5287785530090332,0.000549723599742,-0.000417692774823,-0.0786565365185,0.000609781263374,-0.00126347819872,0.00290891243696,-0.00533939790776,0.0012228372307,0.00228730398132,0.03606813939408146,-0.0668082172309175,1.3264843199776435
1765471499.0823271,1.549793004989624,0.000561848924018,-0.000437534852513,-0.0790163791396,0.000511398095689,-0.0011852839157,0.00184325204397,-0.00523802529049,0.00181276060942,0.00228328141419,0.03606813939408146,-0.0668082172309175,1.3264843199776435
1765471499.1040297,1.571495532989502,0.000571844617354,-0.00045664828482,-0.0793226705671,0.000413401177579,-0.00110493430464,0.000990178250183,-0.00515506742186,0.00229552200467,0.00229109114932,0.03606813939408146,-0.0668082172309175,1.3264843199776435
1765471499.1220305,1.589496374130249,0.000579743159937,-0.000474830548233,-0.0795832298785,0.000315756542726,-0.00102284261802,0.000311593804446,-0.00508718230643,0.00269056967867,0.00230707393416,0.03606813939408146,-0.0668082172309175,1.3264843199776435
1765471499.142082,1.6095478534698486,0.000585578633984,-0.000491938269504,-0.0786590457909,0.000218324505793,-0.000939290458338,0.00271686087815,-0.00503162545135,0.00301387481317,0.00252241361616,0.03606813939408146,-0.0668082172309175,1.3264843199776435
1765471499.1619246,1.6293904781341553,0.000589375833097,-0.000507866806604,-0.0778714240012,0.000120890546587,-0.000854425144297,0.0046303215175,-0.00498614383124,0.00327854856558,0.00266896468771,0.03606813939408146,-0.0668082172309175,1.3264843199776435
1765471499.1825242,1.6499900817871094,0.000591139403321,-0.000522432019347,-0.0772015565629,2.38430668143e-05,-0.000768727505352,0.00613521878451,-0.00494892834319,0.00349511875032,0.00276323650869,0.03606813939408146,-0.0668082172309175,1.3264843199776435
1765471499.2022638,1.6697297096252441,0.000625611485451,-0.000517389228749,-0.0766408123275,0.000271092030088,-0.000499956129068,0.00709455024473,-0.00111994892525,0.00567410479997,0.000187764289094,0.0361008505024082,-0.06684668326391233,1.3264956384122764
1765471499.2228055,1.6902713775634766,0.00065948488442,-0.000510003716332,-0.0761686730027,0.000532924062638,-0.000223901572604,0.00776260680729,0.00201133386003,0.00745604739141,-0.00193701454681,0.0361008505024082,-0.06684668326391233,1.3264956384122764
1765471499.242965,1.7104308605194092,0.000694163572366,-0.000499656551225,-0.0757710380547,0.000806560270715,5.97266859813e-05,0.00819090871491,0.00457532223827,0.00891515549773,-0.0036925674845,0.0361008505024082,-0.06684668326391233,1.3264956384122764
1765471499.2658534,1.7333192825317383,0.000730583822793,-0.000485704935179,-0.0754393653582,0.00108946747573,0.000348138802152,0.00842224818966,0.00667281871447,0.0101087935568,-0.00514196805534,0.0361008505024082,-0.06684668326391233,1.3264956384122764
1765471499.2827907,1.7502565383911133,0.000769572592065,-0.000467710450432,-0.0783339456681,0.00137960203328,0.000640275612654,0.00074235284707,0.00838804281338,0.0110848890057,-0.00691088357058,0.0361008505024082,-0.06684668326391233,1.3264956384122764
1765471499.3037257,1.7711915969848633,0.000811886172616,-0.000445267200651,-0.0808202359977,0.00167586703441,0.000935881558739,-0.00554943948106,0.00979105086185,0.0118833093238,-0.00825892307388,0.0361008505024082,-0.06684668326391233,1.3264956384122764
1765471499.3238678,1.7913336753845215,0.000858129394896,-0.000418030713231,-0.0829533139351,0.00197728641426,0.0012344854507,-0.0106649317748,0.0109390050924,0.0125365842519,-0.00927676419705,0.0361008505024082,-0.06684668326391233,1.3264956384122764
1765471499.3444111,1.8118770122528076,0.000909090034272,-0.000385517099879,-0.0847833709222,0.00228452667207,0.00153731075153,-0.0147875012739,0.0118793641151,0.0130717214174,-0.0100375173896,0.0361008505024082,-0.06684668326391233,1.3264956384122764
1765471499.3640192,1.8314850330352783,0.000964568186591,-0.000347886370022,-0.0863458035962,0.00259369752759,0.00184038903405,-0.0180608703273,0.0126485097369,0.013509424888,-0.0105967125472,0.0361008505024082,-0.06684668326391233,1.3264956384122764
1765471499.3862092,1.853675127029419,0.00102521820958,-0.000304739609827,-0.0876782397814,0.00290596636147,0.00214538228765,-0.0206175701291,0.0132778514261,0.0138675690855,-0.0110004060698,0.0361008505024082,-0.06684668326391233,1.3264956384122764
1765471499.4046907,1.8721566200256348,0.00104458034949,-0.000250045855105,-0.0887982125348,0.00275752602784,0.00251006274449,-0.0222769902488,0.0086922675417,0.0147988604983,-0.0076328367818,0.03619138965709249,-0.0668328056979195,1.3265337216158644
1765471499.4245632,1.892029047012329,0.00106760902932,-0.000189381021118,-0.0875291671261,0.00259206198324,0.00287800310559,-0.0180969601083,0.00493994540283,0.0155609238416,-0.0044274054382,0.03619138965709249,-0.0668328056979195,1.3265337216158644
1765471499.4449875,1.9124534130096436,0.00109273650947,-0.000122463627903,-0.086422688129,0.00241274966215,0.0032484478905,-0.0144936757913,0.00186993185901,0.0161844163613,-0.00184960212714,0.03619138965709249,-0.0668328056979195,1.3265337216158644
1765471499.4651873,1.9326531887054443,0.00111861978015,-4.91793547974e-05,-0.0854583183243,0.00222222210081,0.00362029366684,-0.0113931528712,-0.000641029336705,0.0166943703079,0.000219590392042,0.03619138965709249,-0.0668328056979195,1.3265337216158644
1765471499.4851787,1.9526445865631104,0.0011443864098,3.09027118673e-05,-0.0846185960748,0.00202266943085,0.00399424880732,-0.00872860842895,-0.00269552927952,0.0171116210229,0.0018785225906,0.03619138965709249,-0.0668328056979195,1.3265337216158644
1765471499.5057054,1.9731712341308594,0.00116916415192,0.000117949296635,-0.0838874655662,0.00181564884587,0.0043699022787,-0.00644252100475,-0.0043768616555,0.017453084715,0.00320641882573,0.03619138965709249,-0.0668328056979195,1.3265337216158644
1765471499.5252907,1.9927566051483154,0.00119221215463,0.000212004532522,-0.0832511332739,0.00160257953797,0.00474658278241,-0.00448559670528,-0.00575271958289,0.0177325092562,0.00426713821666,0.03619138965709249,-0.0668328056979195,1.3265337216158644
1765471499.5452964,2.0127623081207275,0.001213001367,0.000313293867941,-0.082697706352,0.00138444763255,0.00512448891521,-0.00281431926383,-0.0068787782973,0.017961201793,0.00511272360008,0.03619138965709249,-0.0668328056979195,1.3265337216158644
1765471499.5655136,2.0329794883728027,0.00123120402192,0.000422610230153,-0.0836875200292,0.00116118961155,0.00550569506415,-0.00489596278769,-0.00780131501727,0.0181485608179,0.00551007804037,0.03619138965709249,-0.0668328056979195,1.3265337216158644
1765471499.586556,2.0540218353271484,0.00127459386473,0.000520003182112,-0.0845497561954,0.00119307847197,0.00564547676811,-0.00660592379481,-0.00560079284829,0.0153851570763,0.00504005061275,0.03608782181901283,-0.0668770100108256,1.326550499530732
1765471499.606744,2.0742099285125732,0.00131393523438,0.000616121382866,-0.0852758941557,0.0012432082903,0.00575067516044,-0.00793545985144,-0.00381067961774,0.0131371426419,0.00468848022924,0.03608782181901283,-0.0668770100108256,1.326550499530732
1765471499.628044,2.0955097675323486,0.00135162504959,0.000717731207972,-0.0858912430884,0.00129937079844,0.00584833357547,-0.00893932454671,-0.00235145463274,0.0113046558621,0.00442767903706,0.03608782181901283,-0.0668770100108256,1.326550499530732
1765471499.6478176,2.115283489227295,0.00138827293072,0.000823996325393,-0.0864112356188,0.00136053679217,0.0059396648341,-0.00966988594502,-0.00116042065976,0.00980896189286,0.00423645291626,0.03608782181901283,-0.0668770100108256,1.326550499530732
1765471499.6679726,2.1354384422302246,0.00142437523318,0.000934260952024,-0.0868490440678,0.00142581887146,0.00602575146919,-0.0101714481421,-0.00018746633414,0.00858713115573,0.00409839003527,0.03608782181901283,-0.0668770100108256,1.326550499530732
1765471499.6879103,2.1553761959075928,0.00146035128926,0.00104806245457,-0.0872160924234,0.00149447907497,0.00610759189191,-0.0104816767509,0.000607850002609,0.00758837723646,0.00400070946524,0.03608782181901283,-0.0668770100108256,1.326550499530732
1765471499.708165,2.175630807876587,0.00149654313775,0.00116502159814,-0.0864200905381,0.00156592972851,0.00618597587157,-0.00801318570076,0.00125827089049,0.00677158223184,0.00414112202654,0.03608782181901283,-0.0668770100108256,1.326550499530732
1765471499.7282438,2.195709705352783,0.0015332271131,0.00128481408723,-0.0857268608346,0.00163969212305,0.00626152448039,-0.00590603041989,0.00179036858133,0.00610337685292,0.00422736827814,0.03608782181901283,-0.0668770100108256,1.326550499530732
1765471499.7484353,2.2159011363983154,0.00157060700798,0.0014070909429,-0.0851235829325,0.0017153447187,0.00633467150814,-0.00411303932669,0.00222572123069,0.00555666336959,0.00427303542681,0.03608782181901283,-0.0668770100108256,1.326550499530732
1765471499.768626,2.2360918521881104,0.00160912157714,0.00153255034822,-0.0845989504429,0.0017929022265,0.00640660514993,-0.00259059693515,0.00258232946716,0.00510883669061,0.0042889267248,0.03608782181901283,-0.0668770100108256,1.326550499530732
1765471499.7881532,2.2556190490722656,0.00164719445622,0.00164830835835,-0.0841478086568,0.00185906113141,0.00636759412391,-0.00140658752748,0.00273777137796,0.00354798694712,0.00303454523543,0.03608678152171202,-0.06687498767287282,1.3265240010778856
1765471499.8090413,2.2765071392059326,0.00168633479237,0.00176545588736,-0.0837575989683,0.0019257247832,0.00632292272642,-0.000432559075312,0.00286491960782,0.00227124452323,0.00199228451876,0.03608678152171202,-0.06687498767287282,1.3265240010778856
1765471499.8293211,2.2967870235443115,0.00172690854083,0.00188446270213,-0.0834205714714,0.00199325416511,0.00627390216813,0.000361863968207,0.00296905282323,0.00122560437555,0.00112478032444,0.03608678152171202,-0.06687498767287282,1.3265240010778856
1765471499.8496664,2.3171322345733643,0.00176844779844,0.00200324455122,-0.0838647458169,0.00206080844204,0.00622085009426,-0.000744084355614,0.00305422355588,0.000370373533906,0.000264735622001,0.03608678152171202,-0.06687498767287282,1.3265240010778856
1765471499.869524,2.3369898796081543,0.00181136328516,0.00212262248872,-0.0842471674466,0.00212887425793,0.0061647113418,-0.00165595863285,0.00312393311637,-0.000329605957194,-0.000423472343522,0.03608678152171202,-0.06687498767287282,1.3265240010778856
1765471499.8898897,2.3573555946350098,0.00185535810378,0.00224135015964,-0.084575439473,0.0021969182745,0.00610604598607,-0.00240031808978,0.00318094355955,-0.00090206891234,-0.000972771861291,0.03608678152171202,-0.06687498767287282,1.3265240010778856
1765471499.9121926,2.3796584606170654,0.00190063186944,0.00235972155395,-0.0848567272614,0.00226515702547,0.00604533642694,-0.00300112934515,0.00322758002231,-0.00137036289157,-0.00141053682873,0.03608678152171202,-0.06687498767287282,1.3265240010778856
1765471499.9300077,2.3974735736846924,0.00194722733974,0.00247760353105,-0.0850972427536,0.00233358703212,0.00598293580689,-0.00347922725099,0.00326573970496,-0.001753538385,-0.00175884312144,0.03608678152171202,-0.06687498767287282,1.3265240010778856
1765471499.9504683,2.4179341793060303,0.00199568934771,0.00259613617721,-0.08530322318,0.00240290064302,0.00591870764228,-0.00385324654002,0.00329701877094,-0.00206762306054,-0.00203591904383,0.03608678152171202,-0.06687498767287282,1.3265240010778856
1765471499.9717028,2.439168691635132,0.00204496577973,0.00271251200812,-0.0854775554922,0.00247159806272,0.00585374763349,-0.00413749442135,0.00332259386615,-0.00232443205493,-0.00225527319972,0.03608678152171202,-0.06687498767287282,1.3265240010778856
1765471499.9897664,2.4572322368621826,0.00208951021234,0.00282735507379,-0.085620394056,0.0024798412074,0.00578090404546,-0.00424211089116,0.0026766124964,-0.00261067302784,-0.00113225895687,0.03630509831326047,-0.06664211504149141,1.3265323900353194
1765471500.0101001,2.4775660037994385,0.00213511286278,0.00294102367825,-0.0835387074708,0.00248569453628,0.00570708568964,0.000950143629251,0.00214819386839,-0.00284482074365,0.000206303936521,0.03630509831326047,-0.06664211504149141,1.3265323900353194
1765471500.033385,2.5008509159088135,0.00218165738494,0.00305366032485,-0.0817455012522,0.00248968385187,0.00563236714355,0.00521775742663,0.00171579630567,-0.00303642054022,0.00122779550969,0.03630509831326047,-0.06664211504149141,1.3265323900353194
1765471500.051125,2.5185909271240234,0.002228878191,0.00316498891111,-0.0802041826994,0.00249208051856,0.00555699990634,0.00868979572095,0.00136199275315,-0.00319319452448,0.00200013743036,0.03630509831326047,-0.06664211504149141,1.3265323900353194
1765471500.0709267,2.5383925437927246,0.00227664839093,0.00327499213041,-0.07888250938,0.00249318967027,0.005481088409,0.0114793358227,0.00107248496845,-0.00332147839432,0.00257770923164,0.03630509831326047,-0.06664211504149141,1.3265323900353194
1765471500.0929792,2.5604450702667236,0.00232493228187,0.00338380132188,-0.0777516509562,0.0024932773434,0.00540462199579,0.0136854191675,0.000835519805941,-0.00342648008916,0.00300395720342,0.03630509831326047,-0.06664211504149141,1.3265323900353194
1765471500.1128154,2.5802812576293945,0.00237349132914,0.00349106697201,-0.0767876874288,0.00249247792321,0.00532787384271,0.0153931550116,0.000641612648099,-0.00351240234035,0.00331307658529,0.03630509831326047,-0.06664211504149141,1.3265323900353194
1765471500.131031,2.598496913909912,0.00242240972941,0.00359710698756,-0.0759678947895,0.00249099667511,0.00525068416303,0.0166775919752,0.000482882771567,-0.00358273717726,0.00353241634573,0.03630509831326047,-0.06664211504149141,1.3265323900353194
1765471500.1586418,2.626107692718506,0.00247144883687,0.00370152479145,-0.0747245095102,0.00248891951679,0.00517335444258,0.0189095314243,0.000352991714841,-0.00364029323722,0.00378697526736,0.03630509831326047,-0.06664211504149141,1.3265323900353194
1765471500.1723413,2.6398072242736816,0.00252063736929,0.00380447296272,-0.0736672801246,0.00248637134702,0.00509581420172,0.0205941943938,0.000246691878356,-0.00368739578543,0.00395180541976,0.03630509831326047,-0.06664211504149141,1.3265323900353194
1765471500.1912181,2.658684015274048,0.00258990076709,0.00392540888466,-0.0727814576752,0.00268097661967,0.00521032399095,0.0216000401343,0.00233527020986,-0.00160827297793,0.00136656058944,0.036414017440655505,-0.06649760110165179,1.3264230672725716
1765471500.2121127,2.6795785427093506,0.0026600438826,0.00404563505321,-0.0720363433267,0.00288323301745,0.00533243432595,0.0222059024856,0.00404478516831,9.35025725866e-05,-0.000780273275242,0.036414017440655505,-0.06649760110165179,1.3264230672725716
1765471500.2325876,2.7000534534454346,0.00273175431713,0.00416581738047,-0.0714137119894,0.0030917334808,0.00546077358576,0.0224775357581,0.00544394660833,0.00148632965379,-0.00256309594059,0.036414017440655505,-0.06649760110165179,1.3264230672725716
1765471500.2527092,2.72017502784729,0.00280607610506,0.00428732274746,-0.0708946576185,0.00330621129858,0.00559451833918,0.0224702812637,0.00659025409937,0.00262744751999,-0.00404518978477,0.036414017440655505,-0.06649760110165179,1.3264230672725716
1765471500.2729878,2.7404537200927734,0.00288251775697,0.00440896289118,-0.0704710378353,0.00352393336593,0.00573212559761,0.0222357740936,0.00752775303408,0.00356070215918,-0.00527484771209,0.036414017440655505,-0.06649760110165179,1.3264230672725716
1765471500.292875,2.760340929031372,0.00296198933034,0.00453203999156,-0.0712266985778,0.00374508096245,0.00587311943464,0.0192025197261,0.00829472178511,0.00432419864808,-0.0065024039239,0.036414017440655505,-0.06649760110165179,1.3264230672725716
1765471500.3131921,2.780658006668091,0.0030454372442,0.00465782028059,-0.0718949020184,0.00397042903878,0.00601765147724,0.0165054372267,0.00892303580897,0.00494966813495,-0.00748082770736,0.036414017440655505,-0.06649760110165179,1.3264230672725716
1765471500.3331776,2.8006434440612793,0.00313185921776,0.00478461741665,-0.0724893314904,0.00419667647152,0.00616372206224,0.0141145442115,0.00943685360666,0.00546115974911,-0.00825639752427,0.036414017440655505,-0.06649760110165179,1.3264230672725716
1765471500.3535323,2.820998191833496,0.00322285414646,0.00491470701873,-0.0730150139581,0.00442647190194,0.00631263725303,0.0119889213602,0.00985770320693,0.00588010405647,-0.00887018225589,0.036414017440655505,-0.06649760110165179,1.3264230672725716
1765471500.3736064,2.8410723209381104,0.00331707814022,0.00504606671199,-0.073482661089,0.00465609755589,0.00646208014211,0.0101060311549,0.0102017786613,0.006222621794,-0.00935263146639,0.036414017440655505,-0.06649760110165179,1.3264230672725716
1765471500.3930695,2.8605353832244873,0.00341769706392,0.00515389398134,-0.0738833450886,0.00490855973188,0.00635320032825,0.00872707828891,0.0107180918656,0.00364421843827,-0.00610305917068,0.03637007112148,-0.06645457440529019,1.3263041571298997
1765471500.4141972,2.8816630840301514,0.00352270716636,0.00526337534731,-0.0742364628306,0.00516302301553,0.00623499511146,0.00754852930112,0.0111405524285,0.00153450339696,-0.00342943161077,0.03637007112148,-0.06645457440529019,1.3263041571298997
1765471500.4346988,2.9021646976470947,0.0036320602713,0.00537336826757,-0.0745471455033,0.00541867211877,0.00610908250988,0.00654573986595,0.011486158217,-0.000191408544549,-0.00122921353398,0.03637007112148,-0.06645457440529019,1.3263041571298997
1765471500.454194,2.9216599464416504,0.00374603157792,0.00548333157042,-0.077019943137,0.00567552364626,0.0059769470699,0.000470094763294,0.0117689283262,-0.00160352698823,0.000167651813006,0.03637007112148,-0.06645457440529019,1.3263041571298997
1765471500.4742975,2.941763401031494,0.00386546508496,0.00559340137448,-0.0791519987929,0.00593481753969,0.00583942983966,-0.00449643942907,0.0120005191273,-0.0027600623891,0.00139925825962,0.03637007112148,-0.06645457440529019,1.3263041571298997
1765471500.4944046,2.9618704319000244,0.0039903937814,0.00570290958294,-0.0809872231694,0.00619612845257,0.00569722377964,-0.00850922706269,0.0121902486938,-0.00370754803703,0.00248359722787,0.03637007112148,-0.06645457440529019,1.3263041571298997
1765471500.514845,2.9823107719421387,0.0041190581791,0.00580977830978,-0.0825580370704,0.00645569462771,0.00555218597749,-0.0116972424572,0.0123453514403,-0.0044821116911,0.00343520299475,0.03637007112148,-0.06645457440529019,1.3263041571298997
1765471500.5355997,3.003065586090088,0.00425293149688,0.00591503223509,-0.0839000857336,0.00671620561588,0.00540421544828,-0.0141821398925,0.012472224924,-0.00511570194874,0.00426910375944,0.03637007112148,-0.06645457440529019,1.3263041571298997
1765471500.560264,3.0277299880981445,0.00439157698051,0.00601800650507,-0.08504191595,0.00697664627205,0.00525416998019,-0.016068571894,0.0125759880528,-0.00563388199375,0.00499833385928,0.03637007112148,-0.06645457440529019,1.3263041571298997
1765471500.575482,3.042947769165039,0.00453525486655,0.00611868087296,-0.0860100776847,0.00723735976695,0.00510231219452,-0.0174479201267,0.0126608675814,-0.00605775970927,0.00563484345169,0.03637007112148,-0.06645457440529019,1.3263041571298997
1765471500.594634,3.0620999336242676,0.00463829881931,0.00627155671937,-0.0859215546251,0.0070443640347,0.00548959271237,-0.0164480052581,0.00773167923756,-0.00045311649132,0.00354450793786,0.03660157888280274,-0.06637190405938924,1.326184048564737
1765471500.615338,3.082803964614868,0.00474466246891,0.00642400708949,-0.085831361486,0.00683354701543,0.00589711870634,-0.0155059321577,0.0036980647866,0.00413323085418,0.00183011297892,0.03660157888280274,-0.06637190405938924,1.326184048564737
1765471500.6357343,3.1032001972198486,0.00485275378401,0.00657800601829,-0.0857410436232,0.00660815370402,0.00632129991175,-0.0146196462723,0.000396839959684,0.00788682800777,0.000423182534028,0.03660157888280274,-0.06637190405938924,1.326184048564737
1765471500.6578076,3.1252734661102295,0.00496128266933,0.00673520893064,-0.0856517701658,0.00637072265188,0.00675935925228,-0.0137868443234,-0.00230545187622,0.0109594193868,-0.000732237160628,0.03660157888280274,-0.06637190405938924,1.326184048564737
1765471500.676,3.143465995788574,0.00506875059063,0.00689649334277,-0.0855637833744,0.00612350897907,0.00720823957455,-0.0130058731827,-0.00451668667186,0.0134736633629,-0.00168140026352,0.03660157888280274,-0.06637190405938924,1.326184048564737
1765471500.6961203,3.163586139678955,0.00517446849056,0.00706311676587,-0.0854782108248,0.00586829941749,0.00766619557195,-0.012274343979,-0.00632623304807,0.0155311748876,-0.00246172881307,0.03660157888280274,-0.06637190405938924,1.326184048564737
1765471500.7164996,3.1839654445648193,0.0052777319298,0.00723599334359,-0.0853955718836,0.00560648903238,0.00813170661336,-0.0115897887586,-0.00780722518717,0.0172151098418,-0.00310382562526,0.03660157888280274,-0.06637190405938924,1.326184048564737
1765471500.7368853,3.2043511867523193,0.00538066541138,0.00742022660974,-0.0840319590073,0.00533482794541,0.00861273802015,-0.0078872493412,-0.00902397373916,0.0185985914709,-0.00339071995857,0.03660157888280274,-0.06637190405938924,1.326184048564737
1765471500.7570214,3.2244873046875,0.00547709337404,0.00760769329083,-0.0828488666672,0.00506292731841,0.00908970807044,-0.00480542650634,-0.0100177273404,0.0197285207803,-0.00367442225718,0.03660157888280274,-0.06637190405938924,1.326184048564737
1765471500.7771297,3.244595527648926,0.00556957823334,0.00780323193687,-0.0818281772515,0.0047873516755,0.00957097401896,-0.00225847533709,-0.0108300163964,0.0206521191562,-0.0039486859647,0.03660157888280274,-0.06637190405938924,1.326184048564737
1765471500.797337,3.264802932739258,0.00571009252074,0.00800113585602,-0.0809359734458,0.00502741321335,0.00999571310118,0.000108881531492,-0.00578777800797,0.0207470678665,-0.000720167166912,0.03667381296618194,-0.06637076389354755,1.326099226884018
1765471500.8176336,3.285099506378174,0.00584909736107,0.00820954806737,-0.0801654677474,0.00528504942218,0.0104249649744,0.00209544997007,-0.00165718147829,0.0208248497528,0.00189320569605,0.03667381296618194,-0.06637076389354755,1.326099226884018
1765471500.8378053,3.3052711486816406,0.00598609615605,0.00842413204444,-0.0795025136325,0.00555859174679,0.0108498074402,0.00374917190985,0.00171878124479,0.0208884213815,0.00400176218629,0.03667381296618194,-0.06637076389354755,1.326099226884018
1765471500.8578837,3.3253495693206787,0.00612363448818,0.00864716907326,-0.0789326770512,0.00584412561103,0.0112748707422,0.00511675156073,0.00447930331795,0.0209404038525,0.00570246726197,0.03667381296618194,-0.06637076389354755,1.326099226884018
1765471500.8779411,3.345407009124756,0.0062628713612,0.00887869725025,-0.0767926284404,0.00613951545858,0.0117001445013,0.0101593744868,0.00673733144017,0.0209829240274,0.00738481632761,0.03667381296618194,-0.06637076389354755,1.326099226884018
1765471500.89808,3.3655459880828857,0.00640474064833,0.0091187242137,-0.0749545128503,0.00644299792558,0.0121255756224,0.014255350674,0.00858472909245,0.0210177117568,0.00868548112512,0.03667381296618194,-0.06637076389354755,1.326099226884018
1765471500.9180527,3.3855185508728027,0.00655050886323,0.00936819538528,-0.0733776596687,0.00675383564308,0.0125526966586,0.0175419467482,0.0100972138503,0.0210461928531,0.0096855497853,0.03667381296618194,-0.06637076389354755,1.326099226884018
1765471500.9383667,3.405832529067993,0.00670254682602,0.00963030410064,-0.0720224842088,0.00707368654848,0.012986496384,0.0201408609062,0.0113380897108,0.0210695593728,0.0104506605124,0.03667381296618194,-0.06637076389354755,1.326099226884018
1765471500.9588258,3.4262917041778564,0.00685652092468,0.00989612691085,-0.0708748127392,0.00739403634646,0.0134122998252,0.0221402099383,0.0123518311429,0.0210886487998,0.0110280633805,0.03667381296618194,-0.06637076389354755,1.326099226884018
1765471500.9789531,3.4464190006256104,0.00701545208515,0.0101704950866,-0.0699009792101,0.00771798211484,0.0138381759535,0.0236350040156,0.0131805267581,0.0211042536907,0.0114597764173,0.03667381296618194,-0.06637076389354755,1.326099226884018
1765471500.9990916,3.466557502746582,0.00715015387113,0.0104168977759,-0.0690825567194,0.00775279935435,0.0139031813872,0.0246014462974,0.0106461274853,0.0171480820199,0.0105048555189,0.03665035634264322,-0.06645628881524193,1.3258985576958806
1765471501.020744,3.4882099628448486,0.00728926288985,0.0106703906404,-0.0685780539918,0.00777855331519,0.0139540379981,0.0247699658156,0.00857299514571,0.0139119433736,0.00966071764619,0.03665035634264322,-0.06645628881524193,1.3258985576958806
1765471501.0392807,3.506746530532837,0.00743418852247,0.0109337028913,-0.0681550642349,0.00779903116088,0.0139968112982,0.0247168312362,0.00687321738388,0.0112586074528,0.00895105763555,0.03665035634264322,-0.06645628881524193,1.3258985576958806
1765471501.059926,3.5273919105529785,0.00757980592601,0.0111978028276,-0.0678141883905,0.00781108408293,0.0140262852714,0.024480406665,0.00548385894094,0.00908983295401,0.00835689499005,0.03665035634264322,-0.06645628881524193,1.3258985576958806
1765471501.080148,3.5476138591766357,0.0077277578445,0.0114657729026,-0.067537870697,0.00781821708314,0.0140480825791,0.0240976991728,0.00434767121581,0.00731625538903,0.00785958574162,0.03665035634264322,-0.06645628881524193,1.3258985576958806
1765471501.1003873,3.5678532123565674,0.0078774735694,0.0117366994516,-0.0673172123459,0.00782125383087,0.0140634823952,0.0235980799193,0.00341830928557,0.00586553080123,0.00744369984509,0.03665035634264322,-0.06645628881524193,1.3258985576958806
1765471501.1203537,3.5878195762634277,0.00802869684246,0.0120102133894,-0.0671438962957,0.00782098653845,0.0140737301935,0.0230065903785,0.00265790629537,0.00467854941256,0.00709627079508,0.03665035634264322,-0.06645628881524193,1.3258985576958806
1765471501.1406095,3.6080753803253174,0.00818289593368,0.0122890345952,-0.0670072807856,0.00781850629226,0.0140806498562,0.0223424908758,0.00203459118416,0.0037055608186,0.00680569660501,0.03665035634264322,-0.06645628881524193,1.3258985576958806
1765471501.1608498,3.6283156871795654,0.00833608452613,0.0125660484753,-0.0687462795852,0.00781316586592,0.0140829785437,0.0172651263517,0.00152500734785,0.00291010559623,0.00621766642715,0.03665035634264322,-0.06645628881524193,1.3258985576958806
1765471501.1809206,3.6483864784240723,0.0084898267549,0.0128441200929,-0.0702558884755,0.00780598480614,0.0140824280867,0.0129717843663,0.00110828596789,0.00225960773043,0.00579928341633,0.03665035634264322,-0.06645628881524193,1.3258985576958806
1765471501.2013257,3.6687915325164795,0.00866727785476,0.0131303799952,-0.0715778848631,0.00802193371478,0.0141413120999,0.00907458641178,0.00323808728392,0.00240529514291,0.00200954821235,0.03669465220171181,-0.06651790354377443,1.3257972244164031
1765471501.2212572,3.688723087310791,0.00884531062867,0.0134164685796,-0.0727252678015,0.00824538558917,0.0142005328449,0.00575510329209,0.00497999106342,0.00252444872429,-0.00104271638977,0.03669465220171181,-0.06651790354377443,1.3257972244164031
1765471501.242018,3.7094838619232178,0.00903049479717,0.0137123653918,-0.0737220896221,0.00847872953328,0.0142617766697,0.00292226325367,0.00641149099679,0.00262236937055,-0.00351107287214,0.03669465220171181,-0.06651790354377443,1.3257972244164031
1765471501.262144,3.729609966278076,0.00921314820604,0.0140006304653,-0.0745863227356,0.0087139982832,0.0143218161521,0.000532573931038,0.00757989571279,0.00270229319186,-0.00548968475694,0.03669465220171181,-0.06651790354377443,1.3257972244164031
1765471501.2822165,3.7496824264526367,0.0093988146868,0.0142899925707,-0.07533270302,0.00895335888145,0.0143821365754,-0.00147611786217,0.00853444531722,0.00276758841959,-0.00707518008818,0.03669465220171181,-0.06651790354377443,1.3257972244164031
1765471501.303176,3.770641803741455,0.00959070733246,0.0145849004235,-0.0759786868011,0.00919885902351,0.0144435465352,-0.00316198357791,0.00931652514341,0.00282108598548,-0.00834776514283,0.03669465220171181,-0.06651790354377443,1.3257972244164031
1765471501.3227015,3.7901673316955566,0.00978366180436,0.0148766556731,-0.0754316493323,0.0094445438627,0.0145043172657,-0.00194216206747,0.00995536044211,0.0028647850202,-0.00915577856526,0.03669465220171181,-0.06651790354377443,1.3257972244164031
1765471501.3428452,3.8103110790252686,0.00998238626619,0.015172226396,-0.0749624199597,0.00969435566394,0.0145657686009,-0.000971565590159,0.0104782308686,0.0029005515675,-0.00983652456833,0.03669465220171181,-0.06651790354377443,1.3257972244164031
1765471501.3630857,3.8305516242980957,0.0101835629459,0.0154662591481,-0.0745613085308,0.00994413431318,0.0146268094729,-0.000212759758568,0.0109054698077,0.00292977651683,-0.0104095055092,0.03669465220171181,-0.06651790354377443,1.3257972244164031
1765471501.3831952,3.850661039352417,0.0103890808025,0.0157613968515,-0.0742197094047,0.0101953558064,0.0146879370663,0.000364812338341,0.0112547484412,0.00295366865173,-0.0108921407291,0.03669465220171181,-0.06651790354377443,1.3257972244164031
1765471501.4038508,3.87131667137146,0.0105898915109,0.0160500062271,-0.0739099594049,0.0103563195661,0.0146727543302,0.00121657106813,0.0105346326783,0.00213338460879,-0.00597394067047,0.03685949355080931,-0.0664700956410183,1.3256816432250935
1765471501.4238591,3.891324996948242,0.0107987328125,0.01634471686,-0.0736433218581,0.0105183195327,0.0146552539411,0.00195553050578,0.00994399190307,0.00146058555629,-0.00195064344858,0.03685949355080931,-0.0664700956410183,1.3256816432250935
1765471501.4440732,3.911539077758789,0.0110079879767,0.0166348914951,-0.0734150196032,0.0106745438223,0.0146346465973,0.00259770622879,0.00946141029753,0.000910876730547,0.00132730810427,0.03685949355080931,-0.0664700956410183,1.3256816432250935
1765471501.4642394,3.9317052364349365,0.011221078583,0.0169254347358,-0.0739532513054,0.0108290494037,0.0146121002917,0.00141066511724,0.00906689314373,0.000461482143471,0.00386051169955,0.03685949355080931,-0.0664700956410183,1.3256816432250935
1765471501.4843273,3.9517931938171387,0.0114378962864,0.0172162352029,-0.0744155075267,0.010982186814,0.0145879625685,0.000477462171042,0.00874423316011,9.39400766461e-05,0.00595160248637,0.03685949355080931,-0.0664700956410183,1.3256816432250935
1765471501.5046105,3.972076416015625,0.0116582230544,0.0175070282069,-0.0748111499276,0.0111341371045,0.0145625149399,-0.000239154326845,0.00848028366905,-0.000206724853643,0.00767867767173,0.03685949355080931,-0.0664700956410183,1.3256816432250935
1765471501.5246866,3.992152452468872,0.0118821838239,0.0177979938887,-0.0751485027098,0.0112852831188,0.0145359864931,-0.000771520491713,0.00826429475872,-0.000452757874601,0.00910595493491,0.03685949355080931,-0.0664700956410183,1.3256816432250935
1765471501.5449727,4.012438535690308,0.0121121482969,0.0180921390624,-0.0754354503744,0.0114375314026,0.0145084341806,-0.00114658939363,0.0080872404911,-0.000654440434455,0.0102877738742,0.03685949355080931,-0.0664700956410183,1.3256816432250935
1765471501.565076,4.032541990280151,0.0123429069319,0.0183828118166,-0.0756774614385,0.011587316236,0.0144802587645,-0.00139143195327,0.00794246939804,-0.000819349222227,0.0112642035071,0.03685949355080931,-0.0664700956410183,1.3256816432250935
1765471501.5864525,4.053918361663818,0.0125788050536,0.0186755094385,-0.0758808893924,0.0117378588589,0.01445134222,-0.00152404039387,0.00782391818193,-0.000954390941693,0.0120722186527,0.03685949355080931,-0.0664700956410183,1.3256816432250935
1765471501.6059172,4.073383092880249,0.012816190691,0.0189701634178,-0.0749535692101,0.0118912144,0.0144719856173,0.00093984678496,0.00777887925231,-0.000516052439427,0.0115749661671,0.03679999270639205,-0.06651738339512403,1.3256634005716266
1765471501.6256,4.093065977096558,0.0130568522676,0.0192647361389,-0.0741521560867,0.0120444893505,0.01449418422,0.002983791357,0.00774204581177,-0.000157573334837,0.0111351124485,0.03679999270639205,-0.06651738339512403,1.3256634005716266
1765471501.6462748,4.113740682601929,0.0133056161943,0.0195651321571,-0.0734577488876,0.0122007731098,0.0145176832876,0.00467409389143,0.00771182482232,0.000136550512368,0.0107458649247,0.03679999270639205,-0.06651738339512403,1.3256634005716266
1765471501.6662264,4.133692264556885,0.0135525112237,0.0198595581831,-0.0728618431393,0.0123537411425,0.014542277357,0.00604562610522,0.00768714126281,0.000376781676721,0.0104030820883,0.03679999270639205,-0.06651738339512403,1.3256634005716266
1765471501.6865628,4.154028654098511,0.0138036634841,0.0201554547802,-0.0723498015508,0.0125073229175,0.0145677642678,0.00714975471544,0.00766695293828,0.000573263254174,0.0101015074469,0.03679999270639205,-0.06651738339512403,1.3256634005716266
1765471501.7064884,4.173954248428345,0.0140567038119,0.0204501415446,-0.0719121471717,0.0126600768242,0.0145939044935,0.00802296083711,0.00765045161703,0.000733861307938,0.00983684581148,0.03679999270639205,-0.06651738339512403,1.3256634005716266
1765471501.726707,4.1941728591918945,0.0143129670209,0.0207452605342,-0.0715385680425,0.0128128470876,0.0146206205365,0.00870047076998,0.0076369567211,0.000865199519577,0.00960494318878,0.03679999270639205,-0.06651738339512403,1.3256634005716266
1765471501.746894,4.214359760284424,0.0145762391204,0.0210451449391,-0.0710343776427,0.0129678721027,0.0146480879666,0.00965067878876,0.00762589295841,0.00097287688245,0.00943638234994,0.03679999270639205,-0.06651738339512403,1.3256634005716266
1765471501.7672663,4.234732151031494,0.0148387746013,0.021341050384,-0.0706074318223,0.0131205766622,0.01467567652,0.0103743583202,0.00761685174661,0.00106086989809,0.00928090594993,0.03679999270639205,-0.06651738339512403,1.3256634005716266
1765471501.7871609,4.254626750946045,0.0150801100012,0.0216625022364,-0.070239982288,0.0129682522214,0.0148765906933,0.0109150683234,0.00421189106526,0.00302917642732,0.00917046084423,0.036804029059919204,-0.06657157040092873,1.3256535468755932
1765471501.8080494,4.27551531791687,0.0153163340092,0.021977210511,-0.0699345445093,0.0128001471288,0.0150837039198,0.0112904356177,0.00143314921069,0.00463548447233,0.00906759243447,0.036804029059919204,-0.06657157040092873,1.3256535468755932
1765471501.8282254,4.295691251754761,0.0155532838715,0.0222937003854,-0.0696778515014,0.0126224014418,0.0152963874818,0.0115314801189,-0.00083676060652,0.00594765184579,0.0089729109608,0.036804029059919204,-0.06657157040092873,1.3256535468755932
1765471501.848344,4.315809965133667,0.0157902223621,0.0226127930065,-0.0694630819426,0.0124366826061,0.0155137725762,0.0116605306214,-0.00269246640587,0.00702038019217,0.0088866219204,0.036804029059919204,-0.06657157040092873,1.3256535468755932
1765471501.8685482,4.336014032363892,0.0160259636328,0.022934434314,-0.069284813909,0.0122444444404,0.0157348403227,0.0116964648164,-0.00420993930649,0.00789758615657,0.00880870068953,0.036804029059919204,-0.06657157040092873,1.3256535468755932
1765471501.888612,4.3560779094696045,0.0162602080259,0.0232594099141,-0.0707888336467,0.0120467752093,0.0159591088339,0.00773498690094,-0.00545131918875,0.00861519095621,0.00842735888754,0.036804029059919204,-0.06657157040092873,1.3256535468755932
1765471501.9089036,4.376369476318359,0.0164922510745,0.0235877792805,-0.0720878808193,0.0118446925519,0.0161859064697,0.00444685218949,-0.00646697559963,0.00920231172854,0.00816900855103,0.036804029059919204,-0.06657157040092873,1.3256535468755932
1765471501.9296348,4.3971006870269775,0.0167216391514,0.0239197370916,-0.0732078573993,0.0116390189162,0.0164147421646,0.00173923221589,-0.0072980151969,0.00968271101019,0.00800384629247,0.036804029059919204,-0.06657157040092873,1.3256535468755932
1765471501.9495714,4.41703724861145,0.0169537715311,0.0242638305124,-0.0741745124416,0.011426527485,0.0166502234424,-0.000473952459763,-0.0079805547632,0.0100772668393,0.00790735559875,0.036804029059919204,-0.06657157040092873,1.3256535468755932
1765471501.9696538,4.437119722366333,0.0171769563016,0.0246038641837,-0.0750035733261,0.0112152572417,0.0168822969753,-0.0022569021663,-0.00853801294786,0.0103995168408,0.00786315287822,0.036804029059919204,-0.06657157040092873,1.3256535468755932
1765471501.9890585,4.45652437210083,0.0174234863106,0.0249547376814,-0.075715145069,0.0112650041614,0.017178589262,-0.00372414101788,-0.00610012485522,0.0113546845715,0.00717884157565,0.036940295522757995,-0.06660424405855264,1.3256462231825956
1765471502.009725,4.477190971374512,0.0176675011108,0.0253102841022,-0.0763225990114,0.0113234085302,0.0174783620275,-0.00487843748121,-0.0041064229057,0.0121358195927,0.00664431828237,0.036940295522757995,-0.06660424405855264,1.3256462231825956
1765471502.0299401,4.497406005859375,0.0179097852178,0.0256707590094,-0.0772067070421,0.0113889583266,0.0177809638738,-0.00663812393172,-0.00247554625898,0.0127747991875,0.00615916508355,0.036940295522757995,-0.06660424405855264,1.3256462231825956
1765471502.051206,4.518671989440918,0.0181552489423,0.0260431165091,-0.077964643033,0.0114597935818,0.018090748685,-0.00800907307561,-0.00113759977068,0.0132990083647,0.00579210885043,0.036940295522757995,-0.06660424405855264,1.3256462231825956
1765471502.0706763,4.538142204284668,0.0183956858091,0.026413814705,-0.0786060396341,0.0115362895664,0.0183973279474,-0.009048680124,-4.46895344592e-05,0.0137272120191,0.00551896069357,0.036940295522757995,-0.06660424405855264,1.3256462231825956
1765471502.0925813,4.560047149658203,0.0186363234605,0.026790492302,-0.0791491533674,0.0116166495335,0.0187057455459,-0.00980640412805,0.000848807626797,0.0140772853709,0.0053181438675,0.036940295522757995,-0.06660424405855264,1.3256462231825956
1765471502.1109955,4.578461408615112,0.0188771649077,0.0271727055944,-0.0796069555834,0.0117001926762,0.0190152923449,-0.0103268877637,0.00157948433032,0.0143635654552,0.00517284681009,0.036940295522757995,-0.06660424405855264,1.3256462231825956
1765471502.1326196,4.600085496902466,0.0191185243089,0.0275605845686,-0.0799909780075,0.0117863346058,0.019325752488,-0.0106484808716,0.00217713732687,0.0145977266779,0.00506985566959,0.036940295522757995,-0.06660424405855264,1.3256462231825956
1765471502.151899,4.619364976882935,0.0193661041036,0.0279632464867,-0.0803156154398,0.0118757483232,0.0196437077081,-0.0108007235193,0.00266771588269,0.0147899359951,0.00499866518756,0.036940295522757995,-0.06660424405855264,1.3256462231825956
1765471502.172475,4.639940977096558,0.0196091992992,0.0283628027422,-0.0796611094509,0.0119658435897,0.019955474276,-0.00863523908468,0.0030683339791,0.0149468986872,0.00512516211188,0.036940295522757995,-0.06660424405855264,1.3256462231825956
1765471502.1911373,4.658603191375732,0.0198556132503,0.0287769437281,-0.0790813860191,0.0120730187668,0.0203442241321,-0.00659659035302,0.00356662713061,0.0159083065774,0.00733488812948,0.03696117637017989,-0.06663023068512693,1.3256030799729364
1765471502.2121747,4.679640531539917,0.0201033207378,0.0291972789387,-0.0785734924178,0.0121819369311,0.0207362379117,-0.00481158090042,0.00397409655527,0.0166944789714,0.00912091712626,0.03696117637017989,-0.06663023068512693,1.3256030799729364
1765471502.2322772,4.699743032455444,0.0203522628399,0.0296237361798,-0.0781284043389,0.0122921908993,0.0211305642777,-0.00324975951873,0.0043073152015,0.0173373917521,0.0105631492059,0.03696117637017989,-0.06663023068512693,1.3256030799729364
1765471502.2529407,4.720406532287598,0.0206087126455,0.030067212535,-0.0777378550661,0.0124057217822,0.021535420619,-0.00187407344386,0.00458083184411,0.0178651153572,0.0117312215973,0.03696117637017989,-0.06663023068512693,1.3256030799729364
1765471502.2729404,4.740406274795532,0.0208614590267,0.0305083680257,-0.077394797335,0.0125182666357,0.0219343026106,-0.000677267104162,0.00480422086889,0.0182961226274,0.0126709520372,0.03696117637017989,-0.06663023068512693,1.3256030799729364
1765471502.2941964,4.761662244796753,0.0211160601593,0.0309567741176,-0.0770944049401,0.0126315665311,0.0223345832732,0.000367154552217,0.00498678827518,0.0186483685781,0.0134265213494,0.03696117637017989,-0.06663023068512693,1.3256030799729364
1765471502.314737,4.782202959060669,0.0213727909383,0.0314129284941,-0.0768312480217,0.0127455589094,0.0227362839483,0.00127838801109,0.00513607777992,0.0189364080732,0.0140335086814,0.03696117637017989,-0.06663023068512693,1.3256030799729364
1765471502.3334417,4.800907611846924,0.0216316248996,0.0318767971334,-0.0758666927799,0.0128600948,0.0231390526468,0.00381582414445,0.00525819296403,0.019172017375,0.0146589996493,0.03696117637017989,-0.06663023068512693,1.3256030799729364
1765471502.353751,4.821216821670532,0.0218950295038,0.0323528643724,-0.0750320806121,0.0129760712657,0.0235463010068,0.00592843886267,0.00535823769842,0.0193650439031,0.0151372015713,0.03696117637017989,-0.06663023068512693,1.3256030799729364
1765471502.3741891,4.841655015945435,0.0221586637232,0.0328333020464,-0.0743133516596,0.0130916132945,0.0239513445365,0.0076671080338,0.00544005709542,0.0195229064256,0.0154985519263,0.03696117637017989,-0.06663023068512693,1.3256030799729364
1765471502.3935153,4.860981225967407,0.022420986122,0.0332995012883,-0.073698984005,0.0131737523058,0.0241395205406,0.00900614016669,0.00513691586724,0.0172626454196,0.0147750289833,0.03699147398876875,-0.066639281271644,1.3254964203712787
1765471502.4147394,4.882205247879028,0.0226854197609,0.0337728333629,-0.0731724362512,0.0132547983889,0.0243195324793,0.0100676634932,0.00488892728048,0.015413609787,0.0141613430979,0.03699147398876875,-0.066639281271644,1.3254964203712787
1765471502.4342608,4.901726722717285,0.0229515212028,0.0342519026595,-0.0727227969395,0.0133348274942,0.0244924833681,0.0108918740067,0.00468607252968,0.0139010979922,0.0136407395156,0.03699147398876875,-0.066639281271644,1.3254964203712787
1765471502.4549959,4.922461748123169,0.0232255883029,0.0347478168442,-0.0723352881518,0.0134161914044,0.0246658913379,0.0115196542279,0.00451955682192,0.0126595348983,0.0131974488746,0.03699147398876875,-0.066639281271644,1.3254964203712787
1765471502.474974,4.942439794540405,0.0234952440492,0.0352374450755,-0.0721951701958,0.0134947776679,0.0248284503797,0.0115330748148,0.00438357487989,0.0116456355915,0.0127872190404,0.03699147398876875,-0.066639281271644,1.3254964203712787
1765471502.4950645,4.9625303745269775,0.0237668309176,0.0357321157567,-0.0720795997465,0.0135729333527,0.0249875682309,0.0114846835809,0.00427243506409,0.0108169624567,0.0124471494874,0.03699147398876875,-0.066639281271644,1.3254964203712787
1765471502.5144136,4.981879472732544,0.0240398231948,0.0362305993897,-0.0719855326817,0.0136505920524,0.025143492134,0.0113856510018,0.00418157351147,0.0101394867284,0.0121652464788,0.03699147398876875,-0.066639281271644,1.3254964203712787
1765471502.5371192,5.004585027694702,0.0243147009328,0.036733566563,-0.0719096290175,0.0137279867542,0.0252971567023,0.0112461113669,0.00410725248646,0.00958533935692,0.0119315291643,0.03699147398876875,-0.066639281271644,1.3254964203712787
1765471502.5561836,5.023649454116821,0.0245988694824,0.0372544983736,-0.0718449788116,0.013807361465,0.0254539672853,0.0110764895418,0.0040462003401,0.00913012649601,0.01173670128,0.03699147398876875,-0.066639281271644,1.3254964203712787
1765471502.5763335,5.04379940032959,0.0248771820976,0.0377653366225,-0.0717995756132,0.0138842801012,0.0256039568445,0.0108763965563,0.00399635390939,0.00875846492988,0.0115757948523,0.03699147398876875,-0.066639281271644,1.3254964203712787
1765471502.5962124,5.06367826461792,0.025164213747,0.0382460120383,-0.0717714652659,0.0140302965205,0.0254170702672,0.0105259491338,0.00471677845595,0.0047653529926,0.0097962166685,0.03702090608000333,-0.0666914126499823,1.3254492824199842
1765471502.6165257,5.083991527557373,0.0254529005745,0.0387284144201,-0.0721204628788,0.0141787828371,0.0252160073652,0.00928523978165,0.00530571939414,0.00150101795307,0.00827129339801,0.03702090608000333,-0.0666914126499823,1.3254492824199842
1765471502.6366112,5.104077100753784,0.0257486658019,0.0392202510081,-0.0724248567942,0.0143313008668,0.0250032980459,0.00819458605205,0.00578859927947,-0.00117545030943,0.00703326456648,0.03702090608000333,-0.0666914126499823,1.3254492824199842
1765471502.6571763,5.1246421337127686,0.0260418327581,0.0397030165342,-0.0726940464069,0.0144836625569,0.0247807402926,0.00723639103712,0.00618306267835,-0.0033618506957,0.00603311987588,0.03702090608000333,-0.0666914126499823,1.3254492824199842
1765471502.6771736,5.144639492034912,0.0263374829605,0.0401845325426,-0.0729298491984,0.0146374090906,0.0245505067383,0.00639660659064,0.00650550848225,-0.00514907767852,0.00522533339937,0.03702090608000333,-0.0666914126499823,1.3254492824199842
1765471502.6977735,5.165239334106445,0.0266359594209,0.0406643931577,-0.0731365227662,0.0147923888617,0.0243138724827,0.00566056989776,0.00676922717745,-0.00661079670921,0.00457319156669,0.03702090608000333,-0.0666914126499823,1.3254492824199842
1765471502.7176285,5.185094356536865,0.0269374427802,0.0411420822816,-0.0733177844312,0.0149484374151,0.0240718817033,0.00501551994176,0.00698499453101,-0.00780673485333,0.00404708333332,0.03702090608000333,-0.0666914126499823,1.3254492824199842
1765471502.737833,5.205298900604248,0.0272413112553,0.0416159522248,-0.0734769487168,0.0151050566393,0.0238258214293,0.00445050453572,0.00716150578757,-0.00878508742192,0.00362325133849,0.03702090608000333,-0.0666914126499823,1.3254492824199842
1765471502.7622812,5.22974705696106,0.0275628215708,0.0421090978259,-0.0732453227461,0.0152693212559,0.0235672527062,0.00483068006958,0.00730695623699,-0.00959127861661,0.00334947719683,0.03702090608000333,-0.0666914126499823,1.3254492824199842
1765471502.7788568,5.2463226318359375,0.0278727261002,0.0425754605881,-0.0730528870323,0.0154271807612,0.0233144063326,0.00510468320936,0.00742551526274,-0.0102484181647,0.00311822018988,0.03702090608000333,-0.0666914126499823,1.3254492824199842
1765471502.799953,5.26741886138916,0.0281928082178,0.0430735001507,-0.0728828383983,0.0156560893929,0.0234127811848,0.00545884638561,0.00829806861851,-0.00690166213926,0.0049913896157,0.0370112646046194,-0.06676714213229222,1.3253873639246398
1765471502.8188639,5.286329746246338,0.0285163081426,0.0435687143709,-0.0727385162149,0.0158880845132,0.0235227452241,0.00574727507816,0.00901095954726,-0.0041673055575,0.00651591998358,0.0370112646046194,-0.06676714213229222,1.3253873639246398
1765471502.839091,5.306556940078735,0.0288432455213,0.0440618374569,-0.0726162126988,0.0161224763452,0.0236423360563,0.00597978272377,0.00959369219297,-0.00193218265027,0.00775713228311,0.0370112646046194,-0.06676714213229222,1.3253873639246398
1765471502.8604279,5.3278937339782715,0.0291742151867,0.0445543222197,-0.0725126041325,0.0163590247819,0.0237697832136,0.00616492270862,0.0100702743767,-0.000104209284001,0.00876803901065,0.0370112646046194,-0.06676714213229222,1.3253873639246398
1765471502.8810272,5.3484930992126465,0.0295090675828,0.0450464230061,-0.0724250849392,0.0165971566476,0.0239037192779,0.00630977069553,0.0104601075346,0.001391030476,0.00959138743182,0.0370112646046194,-0.06676714213229222,1.3253873639246398
1765471502.8999224,5.3673882484436035,0.0298481863793,0.0455390856319,-0.0732682467621,0.0168367059487,0.0240429812352,0.00424289933607,0.0107790552176,0.00261438269031,0.0100890237787,0.0370112646046194,-0.06676714213229222,1.3253873639246398
1765471502.9198985,5.387364387512207,0.0301935545635,0.0460354370449,-0.0739946983414,0.0170786133708,0.0241869849938,0.00255518572059,0.0110402542112,0.00361623466858,0.0105264527038,0.0370112646046194,-0.06676714213229222,1.3253873639246398
1765471502.9398575,5.407323360443115,0.0305415991736,0.0465306564196,-0.0746190569687,0.0173203112498,0.0243342941013,0.00119350911296,0.011253914902,0.00443574925708,0.0109101280343,0.0370112646046194,-0.06676714213229222,1.3253873639246398
1765471502.9613218,5.428787708282471,0.0308940491858,0.0470274323026,-0.0751539529528,0.0175626810771,0.024484503712,0.000111839884279,0.0114287110953,0.00510619560789,0.0112461400939,0.0370112646046194,-0.06676714213229222,1.3253873639246398
1765471502.9802768,5.447742700576782,0.0312512133241,0.0475263750371,-0.0756108879564,0.0178057386698,0.0246371481628,-0.000730716769536,0.0115717404182,0.00565479730092,0.01153996064,0.0370112646046194,-0.06676714213229222,1.3253873639246398
1765471503.0024002,5.469866037368774,0.031620175606,0.0480315688071,-0.0759988529539,0.0181160063213,0.0248258408813,-0.00134491038601,0.0124199302985,0.00647729235607,0.0121051469068,0.0370390571873079,-0.06667229614678258,1.3253673902164642
1765471503.020562,5.488027811050415,0.0319938181253,0.0485389126399,-0.0763276656953,0.0184291352575,0.0250174077405,-0.00178568989919,0.0131140314066,0.00715036656085,0.0125812444509,0.0370390571873079,-0.06667229614678258,1.3253673902164642
1765471503.0405266,5.507992506027222,0.0323733820946,0.0490499800991,-0.0769718738852,0.0187452363895,0.0252116683039,-0.00295091146215,0.0136822069011,0.00770132990708,0.0129132724233,0.0370390571873079,-0.06667229614678258,1.3253673902164642
1765471503.0679398,5.53540563583374,0.0327624793706,0.0495694767543,-0.0775213598559,0.0190663547702,0.0254096289036,-0.00382888498305,0.0141479715601,0.00815298482286,0.0132079588786,0.0370390571873079,-0.06667229614678258,1.3253673902164642
1765471503.0813115,5.548777341842651,0.0331531147094,0.0500866325375,-0.0779861725255,0.0193860976056,0.0256074991504,-0.0044659945051,0.0145288053913,0.00852228178136,0.0134681766724,0.0370390571873079,-0.06667229614678258,1.3253673902164642
1765471503.1019182,5.5693840980529785,0.0335500487006,0.050607775629,-0.0783782385816,0.0197075268752,0.0258068879554,-0.00489755350467,0.0148403342986,0.00882437331977,0.0136972505456,0.0370390571873079,-0.06667229614678258,1.3253673902164642
1765471503.124234,5.591699838638306,0.0339527198703,0.0511321206013,-0.0787070883957,0.0200298752669,0.0260072489941,-0.00515709214502,0.0150951712704,0.00907149033212,0.0138982304699,0.0370390571873079,-0.06667229614678258,1.3253673902164642
1765471503.142066,5.609531879425049,0.034361132985,0.0516596491976,-0.0789811959966,0.0203528627219,0.0262083345796,-0.00527331456534,0.0153036318428,0.00927363585874,0.0140739611643,0.0370390571873079,-0.06667229614678258,1.3253673902164642
1765471503.163661,5.631126880645752,0.0347751693,0.0521901949845,-0.0792079751068,0.0206761732474,0.0264098887231,-0.00527111929758,0.015474148966,0.00943898738425,0.0142270720023,0.0370390571873079,-0.06667229614678258,1.3253673902164642
1765471503.1830943,5.650560140609741,0.0351958139402,0.0527250026716,-0.0782940878842,0.0210003581966,0.0266121965745,-0.00255805919669,0.0156136777375,0.00957428931049,0.0145673920618,0.0370390571873079,-0.06667229614678258,1.3253673902164642
1765471503.202079,5.66954493522644,0.0356102693624,0.0532532894871,-0.0775110498885,0.0212022303044,0.0267134801703,-0.00050428567128,0.0143768709847,0.00856815568761,0.0117176022344,0.03695978653298601,-0.06657641402516132,1.3252510100768278
1765471503.2221797,5.689645528793335,0.0360306142991,0.053785107471,-0.0768330711124,0.0213996408243,0.0268111320588,0.00118276975646,0.0133647072892,0.0077447676169,0.0093573398799,0.03695978653298601,-0.06657641402516132,1.3252510100768278
1765471503.2421877,5.709653615951538,0.03645711972,0.0543209753051,-0.0762473988401,0.0215938030284,0.0269060393163,0.00255430341468,0.0125361439265,0.00707073712991,0.0074009958066,0.03695978653298601,-0.06657641402516132,1.3252510100768278
1765471503.262329,5.729794979095459,0.0368881108334,0.0548589493361,-0.0757431252351,0.0217845685468,0.026998275104,0.00365364068739,0.0118580915064,0.00651914623959,0.00577914870861,0.03695978653298601,-0.06657641402516132,1.3252510100768278
1765471503.2829578,5.7504236698150635,0.0373331691432,0.0554109701394,-0.0753078283354,0.0219776974749,0.0270911197387,0.00452394322296,0.0113014610916,0.00606633129928,0.00442992797795,0.03695978653298601,-0.06657641402516132,1.3252510100768278
1765471503.3042476,5.771713495254517,0.0377737715002,0.0559542391964,-0.0749372494164,0.0221639135671,0.0271796419248,0.00519122322043,0.01084666836,0.00569636060039,0.00331208117532,0.03695978653298601,-0.06657641402516132,1.3252510100768278
1765471503.3242445,5.791710376739502,0.0382184768854,0.0564994505647,-0.0746218583132,0.022348357077,0.0272667661188,0.00568821633313,0.0104749079158,0.00539393608519,0.00238519884224,0.03695978653298601,-0.06657641402516132,1.3252510100768278
1765471503.3432138,5.81067967414856,0.0386679603209,0.0570474916425,-0.0756388683688,0.0225317133529,0.0273529335309,0.00299051186329,0.0101708349434,0.00514657485386,0.00137374103999,0.03695978653298601,-0.06657641402516132,1.3252510100768278
1765471503.3644407,5.83190655708313,0.0391248921994,0.057601628463,-0.076517904323,0.0227154297786,0.027438938353,0.000741993296579,0.00992180843315,0.00494399353352,0.000581416287458,0.03695978653298601,-0.06657641402516132,1.3252510100768278
1765471503.3853676,5.85283350944519,0.0395825289031,0.058153736305,-0.0772758086896,0.0228967504015,0.0275234564863,-0.00111569843704,0.00971817864368,0.0047783421273,-3.5136251152e-05,0.03695978653298601,-0.06657641402516132,1.3252510100768278
1765471503.4039931,5.871459007263184,0.0400045117072,0.0586923703838,-0.0779227826336,0.0226879419337,0.0274582274809,-0.00252991757323,0.00526840539808,0.0030023936012,0.000822530288701,0.03707948314041746,-0.06635270433240545,1.325054202472271
1765471503.4321575,5.899623394012451,0.0404295401798,0.0592331730135,-0.0784775040689,0.0224632651075,0.027386694001,-0.00365152729102,0.00162732526488,0.00154920249706,0.00154724891631,0.03707948314041746,-0.06635270433240545,1.325054202472271
1765471503.4443753,5.911841154098511,0.0408545323213,0.0597736321494,-0.0789513933459,0.0222253475806,0.0273098421339,-0.00452302798659,-0.00135131893447,0.000360396127913,0.00215971571345,0.03707948314041746,-0.06635270433240545,1.325054202472271
1765471503.4647381,5.932204008102417,0.0412829571706,0.0603190556505,-0.0793559950333,0.0219762047333,0.0272286675808,-0.00518192869351,-0.00379162897777,-0.000613555753548,0.00267813184718,0.03707948314041746,-0.06635270433240545,1.325054202472271
1765471503.4877527,5.955218553543091,0.0417132981886,0.0608685218635,-0.0797003457469,0.0217168881717,0.0271435741744,-0.00565995487686,-0.00579202489695,-0.00141193355579,0.00311726027857,0.03707948314041746,-0.06635270433240545,1.325054202472271
1765471503.5052075,5.972673416137695,0.0421343046221,0.0614086730122,-0.0799893537446,0.0214517370332,0.0270558618983,-0.00598556796095,-0.00742622994752,-0.00206416095945,0.0034880368124,0.03707948314041746,-0.06635270433240545,1.325054202472271
1765471503.5293205,5.99678635597229,0.0425538902634,0.0619499414191,-0.0802323259951,0.0211801969748,0.0269656638797,-0.00618256809543,-0.00876280486999,-0.0025976012344,0.00380135734137,0.03707948314041746,-0.06635270433240545,1.325054202472271
1765471503.5455682,6.013034105300903,0.0429682038229,0.0624879265749,-0.0804345991867,0.0209045588602,0.0268737552077,-0.00627290644236,-0.00985541951723,-0.00303367454988,0.00406587526237,0.03707948314041746,-0.06635270433240545,1.325054202472271
1765471503.5656476,6.033113479614258,0.0433786822417,0.0630248381306,-0.0806021962263,0.0206249910879,0.0267802826752,-0.0062747411307,-0.0107490132241,-0.00339031663907,0.00428914486376,0.03707948314041746,-0.06635270433240545,1.325054202472271
1765471503.5873263,6.054792165756226,0.0437875210326,0.0635638987457,-0.0807405462442,0.0203407550828,0.0266850651998,-0.00620304246442,-0.0114807377991,-0.00368235515625,0.00447768969995,0.03707948314041746,-0.06635270433240545,1.325054202472271
1765471503.6059222,6.07338809967041,0.0442234291833,0.0641322615896,-0.0808610201034,0.0203948561473,0.0269275480988,-0.00625979507661,-0.00834327543059,-0.000199342746632,0.0023075848852,0.03706194372792577,-0.0664358906657676,1.324995879244398
1765471503.6261353,6.093601226806641,0.0446563777009,0.0647011333172,-0.0809598529602,0.0204600082532,0.0271825476513,-0.00627642981765,-0.00577623607454,0.00265042208969,0.000535978992812,0.03706194372792577,-0.0664358906657676,1.324995879244398
1765471503.6461844,6.113650321960449,0.045088415838,0.0652730257423,-0.0810406969873,0.0205341481101,0.0274482054724,-0.00626030254676,-0.00367459710269,0.00498352883639,-0.000911198176708,0.03706194372792577,-0.0664358906657676,1.324995879244398
1765471503.6666026,6.134068489074707,0.0455209990216,0.0658497296637,-0.0811064929287,0.0206158793088,0.0277232220039,-0.00621766889006,-0.00195312432255,0.0068945991065,-0.00209394264807,0.03706194372792577,-0.0664358906657676,1.324995879244398
1765471503.6867368,6.154202699661255,0.0459486004216,0.0664236461527,-0.0811581767632,0.0207044661032,0.0280040363168,-0.00615420817009,-0.000545955323392,0.00845674918538,-0.00305868635636,0.03706194372792577,-0.0664358906657676,1.324995879244398
1765471503.7080824,6.175548315048218,0.0463757528509,0.06700069716,-0.081199046998,0.0207980753444,0.0282903549279,-0.00607459630018,0.000604709513735,0.00973414455664,-0.00384595135222,0.03706194372792577,-0.0664358906657676,1.324995879244398
1765471503.7268598,6.194325685501099,0.0468031831816,0.0675817494905,-0.0812309231316,0.0208958011199,0.028581280188,-0.00598261059857,0.00154594861141,0.0107790487093,-0.00448866888489,0.03706194372792577,-0.0664358906657676,1.324995879244398
1765471503.7470765,6.214542388916016,0.0472312342307,0.0681671726646,-0.0812552695945,0.0209969108814,0.0288759772607,-0.00588139390513,0.00231603608307,0.0116339511448,-0.0050135560316,0.03706194372792577,-0.0664358906657676,1.324995879244398
1765471503.7671213,6.2345871925354,0.0476602516768,0.0687573581996,-0.0792564166287,0.0211008040567,0.0291737902324,-0.000982937048931,0.00294618384132,0.0123335013558,-0.00506208619134,0.03706194372792577,-0.0664358906657676,1.324995879244398
1765471503.7872496,6.254715442657471,0.0480802506367,0.0693911159821,-0.0775201136201,0.0209856711716,0.0296935426693,0.0032037170713,0.00100714241659,0.0152417490422,-0.0030889511205,0.03706952957584329,-0.06640958778881387,1.3248588596063136
1765471503.8081524,6.275618314743042,0.0484886869332,0.0700142096352,-0.0760294815344,0.0208620230291,0.0302164808689,0.00662082667092,-0.000576095220076,0.0176163487466,-0.0015400665449,0.03706952957584329,-0.06640958778881387,1.3248588596063136
1765471503.8282902,6.295756101608276,0.0488982183701,0.0706461900639,-0.0747514125973,0.0207326813919,0.0307489688843,0.00937885084317,-0.00187038684973,0.0195575762983,-0.000326811894408,0.03706952957584329,-0.06640958778881387,1.3248588596063136
1765471503.848523,6.315988779067993,0.0493052776687,0.0712834104432,-0.0736595323735,0.0205988490751,0.0312867623174,0.0115725004495,-0.00292808774363,0.0211439561138,0.000619389217789,0.03706952957584329,-0.06640958778881387,1.3248588596063136
1765471503.8685238,6.335989713668823,0.0497113879054,0.0719294026666,-0.0727283778454,0.0204612514438,0.0318303548861,0.0132857898003,-0.00379295968124,0.0224411237656,0.00135460310409,0.03706952957584329,-0.06640958778881387,1.3248588596063136
1765471503.888854,6.356319904327393,0.0501172219513,0.0725863737509,-0.0719357666787,0.0203203171784,0.0323799583677,0.0145913237484,-0.00450069452691,0.0235026112621,0.00192357208119,0.03706952957584329,-0.06640958778881387,1.3248588596063136
1765471503.9090092,6.376475095748901,0.0505199390436,0.0732507502661,-0.0730996803097,0.0201771113385,0.0329318824585,0.0111938465821,-0.00507954675472,0.0243707957324,0.00201514615298,0.03706952957584329,-0.06640958778881387,1.3248588596063136
1765471503.9291918,6.396657705307007,0.0509222254053,0.0739276320132,-0.0741105323612,0.0200314063655,0.0334888928538,0.00832078531294,-0.00555338024283,0.0250814691239,0.00213173746809,0.03706952957584329,-0.06640958778881387,1.3248588596063136
1765471503.949292,6.416757822036743,0.0513207723826,0.0746121795029,-0.0749878147851,0.0198843864688,0.0340466212864,0.00590479760042,-0.00594097096859,0.0256627923577,0.00226339750299,0.03706952957584329,-0.06640958778881387,1.3248588596063136
1765471503.9695,6.4369659423828125,0.0517190469775,0.075310812564,-0.0757476799043,0.0197353149173,0.0346092241954,0.00388277395951,-0.0062583289537,0.02613877787,0.002402450781,0.03706952957584329,-0.06640958778881387,1.3248588596063136
1765471503.9892242,6.456690073013306,0.0521419390563,0.0759788092432,-0.0764027611278,0.019828756558,0.0347239260616,0.00225807479136,-0.00382793729495,0.0215441975465,0.0032587524111,0.03702047331632619,-0.06633752847538121,1.3247792310897202
1765471504.010154,6.477619886398315,0.052558743031,0.0766480173698,-0.0769677009023,0.0199322472032,0.0348164274807,0.00093241902945,-0.00184140725492,0.0177887238963,0.00398218851932,0.03702047331632619,-0.06633752847538121,1.3247792310897202
1765471504.030448,6.497913837432861,0.0529759596399,0.0773267951996,-0.0774533962829,0.0200427885271,0.0348964935432,-0.000136698601724,-0.000216230576853,0.0147163776099,0.00459414390069,0.03702047331632619,-0.06633752847538121,1.3247792310897202
1765471504.0502532,6.517719030380249,0.0533920334293,0.0780099662113,-0.0773190351297,0.0201592609691,0.0349646408924,0.000321901938159,0.00111288551275,0.0122037247167,0.0052158100686,0.03702047331632619,-0.06633752847538121,1.3247792310897202
1765471504.0711153,6.538581132888794,0.0538184505122,0.0787154103526,-0.0772009656814,0.0202814270598,0.0350290482309,0.00072615588127,0.00220404788091,0.0101409159803,0.00572140863181,0.03702047331632619,-0.06633752847538121,1.3247792310897202
1765471504.0912387,6.558704614639282,0.0542352199318,0.0794069042688,-0.077098061209,0.0204067998253,0.0350799570385,0.00107620978274,0.00309479723146,0.00845698186031,0.0061298704958,0.03702047331632619,-0.06633752847538121,1.3247792310897202
1765471504.113482,6.5809478759765625,0.0546531667807,0.0801018605751,-0.0770081701401,0.0205352813247,0.0351249684138,0.00138132603885,0.00382257298313,0.00708114429252,0.006459885768,0.03702047331632619,-0.06633752847538121,1.3247792310897202
1765471504.1313353,6.598801136016846,0.0550727289476,0.0807999280887,-0.0769295919846,0.0206663442606,0.0351651712982,0.00164720293987,0.00441756752739,0.00595632549394,0.00672645485215,0.03702047331632619,-0.06633752847538121,1.3247792310897202
1765471504.1522388,6.619704723358154,0.0554946130336,0.0815014099413,-0.0768608378383,0.0207996449239,0.0352015292935,0.00187888697528,0.00490428632964,0.00503619863956,0.0069416891339,0.03702047331632619,-0.06633752847538121,1.3247792310897202
1765471504.1723835,6.639849424362183,0.0559248157357,0.0822156658232,-0.0768001532207,0.0209362659055,0.0352359493731,0.00208243141661,0.00530337965898,0.00428172503377,0.00711568640018,0.03702047331632619,-0.06633752847538121,1.3247792310897202
1765471504.1917894,6.659255266189575,0.0563573791179,0.0829296657904,-0.0767499656832,0.021138930605,0.0353541711589,0.00220708167617,0.00635683263601,0.00463307928651,0.00662987625243,0.0370079356532568,-0.06619321427262334,1.324706526791961
1765471504.2125084,6.679974317550659,0.0567925288978,0.0836456227539,-0.0761555324061,0.0213453595102,0.0354736549966,0.00361489543033,0.00721812569858,0.00492034315779,0.0063348850575,0.0370079356532568,-0.06619321427262334,1.324706526791961
1765471504.2324045,6.699870347976685,0.0572299488673,0.0843625377068,-0.0756447900609,0.0215546462496,0.0355940195032,0.00475479625166,0.00792238941878,0.00515523361663,0.00607250360673,0.0370079356532568,-0.06619321427262334,1.324706526791961
1765471504.2526298,6.720095634460449,0.0576706104144,0.0850816393558,-0.075206886398,0.021766459186,0.0357152343514,0.00566556323035,0.00849845893646,0.00534736793996,0.0058397689068,0.0370079356532568,-0.06619321427262334,1.324706526791961
1765471504.2726336,6.7400994300842285,0.0581152793684,0.085803863235,-0.0748322696286,0.0219805669247,0.0358372822775,0.00638078327256,0.00896986223273,0.00550459332782,0.00563385383617,0.0370079356532568,-0.06619321427262334,1.324706526791961
1765471504.292836,6.760301828384399,0.0585629943003,0.0865273812932,-0.0745130940642,0.0221961419204,0.0359597542679,0.00692900966097,0.009355554544,0.00563323184968,0.00545219897636,0.0370079356532568,-0.06619321427262334,1.324706526791961
1765471504.3130836,6.7805495262146,0.0590143904879,0.0872530289564,-0.0742420467241,0.0224130639781,0.0360826653537,0.0073355744118,0.00967115063169,0.00573849143883,0.00529237564502,0.0370079356532568,-0.06619321427262334,1.324706526791961
1765471504.3344312,6.801897048950195,0.0594708966348,0.0879829287734,-0.0740124394459,0.0226316472413,0.0362062646991,0.00762255216254,0.00992951793139,0.00582466372322,0.00515207193355,0.0370079356532568,-0.06619321427262334,1.324706526791961
1765471504.3533149,6.8207807540893555,0.059930715428,0.0887140527034,-0.0729026401532,0.0228508640799,0.0363299962741,0.00998612497094,0.0101409533724,0.00589518299933,0.00520213836755,0.0370079356532568,-0.06619321427262334,1.324706526791961
1765471504.3736198,6.84108567237854,0.0603940955934,0.0894467051958,-0.071953103063,0.0230706073874,0.036453844127,0.0118567473032,0.0103139567625,0.00595288417649,0.00520396084571,0.0370079356532568,-0.06619321427262334,1.324706526791961
1765471504.3955274,6.862993240356445,0.0608812743468,0.0902417065617,-0.0711302293143,0.0232429020136,0.0367790799031,0.0132561093469,0.00980123367617,0.00814289253927,0.0044037155421,0.03712228929375128,-0.06612312736287301,1.3247691110775779
1765471504.414715,6.88218092918396,0.0613472432248,0.0910000248307,-0.0704442143477,0.0234021812125,0.0371052673785,0.0142835398177,0.00938347063131,0.00992729543882,0.00372273938482,0.03712228929375128,-0.06612312736287301,1.3247691110775779
1765471504.4348187,6.902284622192383,0.0618169367376,0.0917621002206,-0.0698651295788,0.0235599844563,0.0374375445346,0.0150036309262,0.0090425823628,0.0113833409705,0.00314285283033,0.03712228929375128,-0.06612312736287301,1.3247691110775779
1765471504.4545517,6.922017574310303,0.0622904742829,0.0925289682329,-0.0693782282565,0.0237166678177,0.0377749508321,0.0154664504173,0.00876412554452,0.0125727213143,0.00264891336273,0.03712228929375128,-0.06612312736287301,1.3247691110775779
1765471504.47505,6.942515850067139,0.0627672810663,0.0933003996106,-0.068971210133,0.0238722689378,0.0381163597599,0.0157146926986,0.00853653848269,0.0135448202542,0.00222832922598,0.03712228929375128,-0.06612312736287301,1.3247691110775779
1765471504.49511,6.962575912475586,0.0632482128126,0.0940783194439,-0.0699176573306,0.024027301711,0.0384615673868,0.0127337568555,0.00835039973262,0.0143398798686,0.00162779053504,0.03712228929375128,-0.06612312736287301,1.3247691110775779
1765471504.5168445,6.9843103885650635,0.0637330260153,0.0948628004441,-0.070742735523,0.0241818350511,0.0388099097583,0.0101788050884,0.00819810546827,0.0149903785909,0.00117050701069,0.03712228929375128,-0.06612312736287301,1.3247691110775779
1765471504.536912,7.004377841949463,0.0642204713009,0.0956522111097,-0.0714616841626,0.0243355822181,0.0391601555706,0.0079956361853,0.00807352087216,0.0155225202374,0.000826142133723,0.03712228929375128,-0.06612312736287301,1.3247691110775779
1765471504.5557218,7.023187637329102,0.0647108686856,0.0964473643608,-0.072087356011,0.0244887762166,0.0395120964789,0.00613615795894,0.00797159792143,0.0159578665684,0.000570266278892,0.03712228929375128,-0.06612312736287301,1.3247691110775779
1765471504.5757458,7.0432116985321045,0.0652045691065,0.097249073639,-0.072631233382,0.0246416283045,0.0398656408713,0.00455792640166,0.00788819927256,0.0163140895343,0.00038333738829,0.03712228929375128,-0.06612312736287301,1.3247691110775779
1765471504.5952532,7.062719106674194,0.0656573664185,0.0980122333998,-0.0731021959453,0.0243545732779,0.039768711755,0.00325169319732,0.00298177351731,0.0116325800157,0.000597877676776,0.03703006901862888,-0.0662441347449035,1.3247599231718172
1765471504.615991,7.083456993103027,0.0661117292283,0.0987805543122,-0.0735104189485,0.0240497531014,0.0396548863366,0.00215829497872,-0.00103392142425,0.00780096917907,0.00079030477769,0.03703006901862888,-0.0662441347449035,1.3247599231718172
1765471504.6362512,7.103717088699341,0.0665661490705,0.099552717096,-0.0731302891819,0.0237302901218,0.0395272045886,0.00299111893017,-0.00432085425425,0.00466471315517,0.0011006548948,0.03703006901862888,-0.0662441347449035,1.3247599231718172
1765471504.656362,7.123827934265137,0.0670180480861,0.100325394447,-0.0728048332921,0.0233990384864,0.0393879393742,0.00365652330966,-0.00701034827652,0.00209850865243,0.00134119328939,0.03703006901862888,-0.0662441347449035,1.3247599231718172
1765471504.6764667,7.143932580947876,0.067467302782,0.101099163422,-0.0725268570772,0.0230580567437,0.0392394194233,0.0041789317517,-0.00921129561018,-1.54470749002e-06,0.00152660148245,0.03703006901862888,-0.0662441347449035,1.3247599231718172
1765471504.6966436,7.164109468460083,0.0679129635107,0.101873094765,-0.0722901647405,0.0227090893921,0.0390832966939,0.0045795249028,-0.011012576731,-0.00172025301646,0.00166860881503,0.03703006901862888,-0.0662441347449035,1.3247599231718172
1765471504.7165906,7.184056520462036,0.0683544623976,0.102646790252,-0.0720892982125,0.0223534677448,0.0389209127036,0.00487671650264,-0.0124869244832,-0.00312701496087,0.00177658566068,0.03703006901862888,-0.0662441347449035,1.3247599231718172
1765471504.7370365,7.20450234413147,0.0687913037121,0.103419883868,-0.0719194938906,0.0219922623213,0.0387533391807,0.00508646561069,-0.0136937953132,-0.00427856143484,0.00185799485755,0.03703006901862888,-0.0662441347449035,1.3247599231718172
1765471504.7571077,7.224573612213135,0.0692221605613,0.104190446146,-0.0717767860354,0.0216269409883,0.038581647772,0.00522256935929,-0.0146814813594,-0.00522097080934,0.00191875147511,0.03703006901862888,-0.0662441347449035,1.3247599231718172
1765471504.7772455,7.244711399078369,0.0696469866107,0.104958710857,-0.0718407212005,0.0212581135149,0.038406560666,0.00486168799409,-0.0154897855762,-0.00599222142507,0.00192904497467,0.03703006901862888,-0.0662441347449035,1.3247599231718172
1765471504.797613,7.265078783035278,0.0701009690153,0.105758230572,-0.0719063219713,0.0212316214522,0.038552615373,0.00437519236587,-0.0123440343022,-0.00305366167377,-4.82666113654e-06,0.037008747085151436,-0.06613919371438676,1.3246920125640202
1765471504.8174853,7.284951210021973,0.0705494958739,0.106555802643,-0.0719672797448,0.0212168377786,0.0387094759335,0.00391018675848,-0.00976948504487,-0.000648682332987,-0.00158514775229,0.037008747085151436,-0.06613919371438676,1.3246920125640202
1765471504.837557,7.305022954940796,0.070994185507,0.10735342621,-0.0720241688723,0.0212113562991,0.03887511494,0.00346637760463,-0.00766222043215,0.0013197895635,-0.00287638838265,0.037008747085151436,-0.06613919371438676,1.3246920125640202
1765471504.8577142,7.3251800537109375,0.0714354603782,0.108151093206,-0.0720775688118,0.0212136626935,0.0390479379284,0.00304354870078,-0.00593761806724,0.00293080284938,-0.00393102494871,0.037008747085151436,-0.06613919371438676,1.3246920125640202
1765471504.8781054,7.345571279525757,0.0718784830691,0.108957691594,-0.0721275357806,0.021221265522,0.0392273961729,0.0026397801709,-0.00452408452651,0.00425123552445,-0.00479347298361,0.037008747085151436,-0.06613919371438676,1.3246920125640202
1765471504.898126,7.365591764450073,0.0723153227976,0.10975806077,-0.0721752092006,0.021235162365,0.0394110199424,0.00225724494183,-0.003368156736,0.00533102937486,-0.00549681791834,0.037008747085151436,-0.06613919371438676,1.3246920125640202
1765471504.919602,7.387067794799805,0.0727510283814,0.110561064311,-0.0722202461798,0.0212531967552,0.0395986199077,0.00189443261679,-0.00242252209638,0.00621438080647,-0.00607038603957,0.037008747085151436,-0.06613919371438676,1.3246920125640202
1765471504.938381,7.405846834182739,0.0731853695466,0.111365909783,-0.0729964198141,0.0212746989533,0.0397893218387,-0.000191443242341,-0.00164890616978,0.0069370433525,-0.00667611393975,0.037008747085151436,-0.06613919371438676,1.3246920125640202
1765471504.95816,7.425625801086426,0.0736205800717,0.11217648101,-0.0736678252877,0.0212989084372,0.0399831772805,-0.00193319354274,-0.00101557176038,0.00752866387252,-0.0071444460762,0.037008747085151436,-0.06613919371438676,1.3246920125640202
1765471504.9785671,7.446033000946045,0.0740537551564,0.112987088464,-0.0742471439186,0.0213255248658,0.0401786444719,-0.00337562110124,-0.000497468075546,0.00801264321565,-0.00750369779594,0.037008747085151436,-0.06613919371438676,1.3246920125640202
1765471505.0001142,7.467580080032349,0.0744775206142,0.113795646052,-0.0747299915115,0.0212616866624,0.0403212344515,-0.00421217568471,-0.00109011844185,0.0078066331183,-0.0034311502682,0.03707346606082956,-0.0661660292235585,1.324652331463778
1765471505.0202699,7.487735748291016,0.0749008878933,0.114607413931,-0.075142139146,0.021195697711,0.0404630846199,-0.004813562522,-0.00157509642268,0.00763805081967,-8.13009279551e-05,0.03707346606082956,-0.0661660292235585,1.324652331463778
1765471505.0390725,7.506538391113281,0.0753234593698,0.115421945092,-0.0754919840695,0.0211279624054,0.0406042594357,-0.00521590100449,-0.00197196294113,0.00750009678345,0.0026745349225,0.03707346606082956,-0.0661660292235585,1.324652331463778
1765471505.05976,7.527225971221924,0.0757479699441,0.116244784311,-0.0757878886652,0.0210585055105,0.0407458935754,-0.00545036224129,-0.0022970598173,0.0073870904598,0.0049443034857,0.03707346606082956,-0.0661660292235585,1.324652331463778
1765471505.0804653,7.54793119430542,0.0761752000413,0.117077772857,-0.0758529806199,0.0209873813485,0.0408883728212,-0.00510650533004,-0.0025635798556,0.00729444592239,0.00685016316165,0.03707346606082956,-0.0661660292235585,1.324652331463778
1765471505.1003487,7.567814588546753,0.0765951233401,0.11790156786,-0.0759004158936,0.0209159943155,0.0410283192502,-0.00472978046315,-0.00278137465597,0.00721873867479,0.00840965077356,0.03707346606082956,-0.0661660292235585,1.324652331463778
1765471505.1204813,7.587947130203247,0.0770222493762,0.118744722504,-0.0759352448776,0.0208426719456,0.0411708599042,-0.00432285311254,-0.00295996895585,0.00715665784063,0.0096900108219,0.03707346606082956,-0.0661660292235585,1.324652331463778
1765471505.1406045,7.608070373535156,0.0774399072291,0.119574542274,-0.0759563508044,0.0207698240027,0.0413103258312,-0.00390197079502,-0.00310580762837,0.0071059631295,0.0107364720932,0.03707346606082956,-0.0661660292235585,1.324652331463778
1765471505.1607885,7.628254413604736,0.0778560912658,0.120406799667,-0.0759672849583,0.02069649566,0.0414495369458,-0.00347035176478,-0.00322497916857,0.00706453813089,0.0115920831523,0.03707346606082956,-0.0661660292235585,1.324652331463778
1765471505.180923,7.648388862609863,0.0782712260097,0.121242424762,-0.0759696439943,0.0206227062594,0.0415886873241,-0.00303309151999,-0.00332242214752,0.00703066615726,0.0122918295726,0.03707346606082956,-0.0661660292235585,1.324652331463778
1765471505.201286,7.668751955032349,0.0786895314882,0.122093445167,-0.0759770725102,0.0205924301534,0.0418503092198,-0.00286020541546,-0.00291957892132,0.00835095654352,0.00955830231156,0.03696130536704519,-0.0662009790516766,1.3245711050505304
1765471505.2212286,7.688694477081299,0.0791063565981,0.122947223764,-0.0748784108401,0.0205636360834,0.0421165448587,-8.7268293609e-05,-0.00259003896554,0.00943100060834,0.00752963520224,0.03696130536704519,-0.0662009790516766,1.3245711050505304
1765471505.241457,7.708922863006592,0.0795230388626,0.123806673943,-0.073929913856,0.0205359140983,0.0423870973883,0.00218346653192,-0.00232032393986,0.0103149726657,0.00583005992208,0.03696130536704519,-0.0662009790516766,1.3245711050505304
1765471505.2615228,7.7289886474609375,0.0799378968665,0.124668476407,-0.0731133759322,0.0205092696669,0.0426604210405,0.00402075903922,-0.00209965480364,0.0110382002642,0.00440574332079,0.03696130536704519,-0.0662009790516766,1.3245711050505304
1765471505.2815568,7.749022722244263,0.0803517240806,0.125534360814,-0.0724123556685,0.0204834358253,0.0429362518106,0.00548651899465,-0.00191909968047,0.0116299570019,0.00321135036799,0.03696130536704519,-0.0662009790516766,1.3245711050505304
1765471505.3017595,7.769225358963013,0.080764981437,0.126405379856,-0.0718121813386,0.0204582322578,0.0432143362445,0.00663471226966,-0.00177133671288,0.0121142397522,0.0022090896408,0.03696130536704519,-0.0662009790516766,1.3245711050505304
1765471505.3218446,7.789310455322266,0.0811772909915,0.127280809924,-0.0713002084844,0.0204335821104,0.0434940379444,0.00751201004222,-0.00165041512869,0.0125105517533,0.00136774694246,0.03696130536704519,-0.0662009790516766,1.3245711050505304
1765471505.3419478,7.80941367149353,0.0815891124424,0.128161682857,-0.0708650141973,0.0204093542629,0.043775286053,0.00815926564263,-0.00155144542396,0.0128349180109,0.00066118163973,0.03696130536704519,-0.0662009790516766,1.3245711050505304
1765471505.362054,7.829519987106323,0.0820001507975,0.129047415969,-0.0726956073778,0.0203854967477,0.0440576154556,0.00338839091832,-0.00147044600751,0.0131003879106,-0.000346565999709,0.03696130536704519,-0.0662009790516766,1.3245711050505304
1765471505.3820062,7.8494720458984375,0.0824164304683,0.129951158112,-0.0742792436102,0.0203615237764,0.0443447061357,-0.000576728780108,-0.00140401114868,0.0133181234953,-0.00110867203515,0.03696130536704519,-0.0662009790516766,1.3245711050505304
1765471505.402915,7.870380878448486,0.0828654919274,0.130833679391,-0.075639431814,0.0207248101582,0.0444866789027,-0.00374294552881,0.00290697017832,0.0119298716395,-0.000537987178874,0.037044683115110694,-0.06613357610896237,1.3246894825609845
1765471505.4225872,7.890053033828735,0.0833155576341,0.131721126296,-0.0768076974974,0.0211035950547,0.0446236699339,-0.0062980722091,0.00643283592074,0.0107944481039,-2.29314058461e-05,0.037044683115110694,-0.06613357610896237,1.3246894825609845
1765471505.4425442,7.910010099411011,0.0837681013136,0.132613037122,-0.0778086386418,0.0214950956761,0.0447565784299,-0.00833015153695,0.00931729077956,0.00986557611228,0.000439746887271,0.037044683115110694,-0.06613357610896237,1.3246894825609845
1765471505.4627929,7.930258750915527,0.0842245569693,0.133509508055,-0.0786639015398,0.021897145783,0.0448862400152,-0.00991572662186,0.0116775950308,0.00910549470423,0.00085361051437,0.037044683115110694,-0.06613357610896237,1.3246894825609845
1765471505.4829717,7.950437545776367,0.0846886955193,0.134415842535,-0.079393858877,0.022309545784,0.0450143232618,-0.0111216284055,0.0136110509203,0.00848286994129,0.00122262113826,0.037044683115110694,-0.06613357610896237,1.3246894825609845
1765471505.5032709,7.970736742019653,0.0851553309831,0.135319609008,-0.0800117212944,0.0227273638168,0.0451389316911,-0.0120043736467,0.0151924666508,0.00797361157149,0.00154997753633,0.037044683115110694,-0.06613357610896237,1.3246894825609845
1765471505.5237267,7.991192579269409,0.0856277683468,0.136226048553,-0.0805332788464,0.0231507009839,0.0452615971661,-0.0126143398439,0.0164860793694,0.00755703350699,0.00183929173868,0.037044683115110694,-0.06613357610896237,1.3246894825609845
1765471505.5438669,8.011332750320435,0.0861066584286,0.137135232083,-0.0809713951886,0.0235785798322,0.0453827050056,-0.0129952602027,0.0175444073593,0.007216223449,0.00209405662394,0.037044683115110694,-0.06613357610896237,1.3246894825609845
1765471505.5640302,8.031496047973633,0.0865929004119,0.138047905051,-0.081337503489,0.0240104958095,0.045502669223,-0.013184838153,0.0184104571789,0.0069373321298,0.00231762394845,0.037044683115110694,-0.06613357610896237,1.3246894825609845
1765471505.5855615,8.053027391433716,0.0870862456085,0.138962792321,-0.0816410811633,0.0244453036483,0.0456215304038,-0.0132157722634,0.0191191311598,0.00670912006055,0.00251307299747,0.037044683115110694,-0.06613357610896237,1.3246894825609845
1765471505.6041145,8.071580410003662,0.0875752003157,0.139864454399,-0.0818892144719,0.0247595452105,0.0455752071729,-0.0130772003382,0.0183403014772,0.00471150980867,0.00316734385514,0.03708467214335391,-0.06610719833060298,1.3246712399075176
1765471505.624427,8.091892957687378,0.0880712143928,0.140767365715,-0.0820907591804,0.0250706602688,0.0455215510744,-0.0128307563172,0.0177029479371,0.00307676989793,0.00371109043708,0.03708467214335391,-0.06610719833060298,1.3246712399075176
1765471505.6442719,8.111737728118896,0.0885746197982,0.141671946352,-0.0811529518798,0.025379603241,0.0454619907811,-0.00988554642437,0.0171813050502,0.00173881475566,0.00436994493637,0.03708467214335391,-0.06610719833060298,1.3246712399075176
1765471505.6644416,8.13190746307373,0.089084883226,0.142577067195,-0.0803348873973,0.0256865680597,0.0453975585892,-0.00736128938487,0.0167543748159,0.00064378687989,0.00487554801824,0.03708467214335391,-0.06610719833060298,1.3246712399075176
1765471505.6844301,8.151895999908447,0.0896021891803,0.143482913511,-0.0796219900594,0.0259921349941,0.0453291473902,-0.00520391869189,0.0164049266146,-0.000252508324351,0.00526010452725,0.03708467214335391,-0.06610719833060298,1.3246712399075176
1765471505.7046864,8.172152280807495,0.0901264078887,0.144389123389,-0.0790013395965,0.0262965811666,0.0452574578798,-0.00336611931212,0.0161188837106,-0.000986176095664,0.00554939438371,0.03708467214335391,-0.06610719833060298,1.3246712399075176
1765471505.7248082,8.19227409362793,0.0906573980403,0.145295337459,-0.078461604811,0.0266001126165,0.045183068986,-0.00180643694958,0.0158847391936,-0.00158673036062,0.00576402757739,0.03708467214335391,-0.06610719833060298,1.3246712399075176
1765471505.7448425,8.212308406829834,0.091198752652,0.146207479369,-0.0779924984877,0.0269050716447,0.0451061955866,-0.000486409192176,0.0156928846967,-0.00207881549634,0.00592072178097,0.03708467214335391,-0.06610719833060298,1.3246712399075176
1765471505.7652702,8.232736110687256,0.0917420464074,0.14711128075,-0.0775857654472,0.0272066947567,0.0450278102175,0.000621715928421,0.0155359747181,-0.00248127188557,0.00603207898454,0.03708467214335391,-0.06610719833060298,1.3246712399075176
1765471505.790689,8.25815486907959,0.0922916737223,0.148014146909,-0.0772338258266,0.0275077689933,0.0449479665844,0.00154743585469,0.0154076111144,-0.00281051004434,0.00610866844554,0.03708467214335391,-0.06610719833060298,1.3246712399075176
1765471505.8055851,8.273051023483276,0.0928416950149,0.148935733441,-0.0772929416352,0.0277466816854,0.0450573696836,0.00152078203225,0.0146207825671,-0.000982302620288,0.0070395588608,0.03705527334163296,-0.06606143773293485,1.3246299609106214
1765471505.8256183,8.293084144592285,0.0933973248394,0.149856281835,-0.0773423773811,0.0279825459088,0.045173439085,0.00152459289648,0.0139769551192,0.000513639696699,0.00780335577523,0.03705527334163296,-0.06606143773293485,1.3246299609106214
1765471505.8457708,8.313236713409424,0.0939588727457,0.150777347082,-0.077383261833,0.0282161826589,0.0452949514713,0.00155367601817,0.0134500622506,0.00173788284032,0.00843015497744,0.03705527334163296,-0.06606143773293485,1.3246299609106214
1765471505.8658562,8.333322048187256,0.0945254343129,0.151698334754,-0.0774166683107,0.0284476850146,0.0454208883158,0.00160325542149,0.0130189067099,0.00273967892795,0.00894447588995,0.03705527334163296,-0.06606143773293485,1.3246299609106214
1765471505.8859956,8.353461503982544,0.0950977427825,0.152621119656,-0.0774435073495,0.028677828223,0.0455505101311,0.001669580295,0.0126660221123,0.00355961135609,0.00936656123324,0.03705527334163296,-0.06606143773293485,1.3246299609106214
1765471505.907112,8.374577760696411,0.0956753944019,0.153545622448,-0.0774646475739,0.0289067660405,0.0456831529168,0.00174913394048,0.0123771879138,0.00423072176242,0.00971292877661,0.03705527334163296,-0.06606143773293485,1.3246299609106214
1765471505.9271429,8.394608736038208,0.096258392367,0.154472309096,-0.0774808490237,0.0291347773439,0.0458183024082,0.00183899504017,0.0121407678848,0.00478004709342,0.00999712651651,0.03705527334163296,-0.06606143773293485,1.3246299609106214
1765471505.9463923,8.41385817527771,0.0968457780921,0.155400052738,-0.0756597003361,0.0293616934271,0.0459553753036,0.00629103514265,0.0119472902397,0.00522959517915,0.0105756104963,0.03705527334163296,-0.06606143773293485,1.3246299609106214
1765471505.966545,8.434010982513428,0.0974378324765,0.156329614322,-0.0740918271547,0.0295878303099,0.0460940541856,0.00993236824837,0.01178895722,0.0055974842231,0.0109845122838,0.03705527334163296,-0.06606143773293485,1.3246299609106214
1765471505.9884925,8.455958366394043,0.0980520762705,0.157329870913,-0.0727382741519,0.0296487980519,0.0463747916538,0.0126192666663,0.00969221423789,0.00737526000737,0.00766241571779,0.0369818033850604,-0.06605954439184737,1.324653396728214
1765471506.0080884,8.47555422782898,0.0986369264027,0.15828090226,-0.0715944894788,0.0296891145412,0.0466554058842,0.0146716764102,0.007983736358,0.00882383554988,0.00490701515396,0.0369818033850604,-0.06605954439184737,1.324653396728214
1765471506.0282705,8.495736360549927,0.0992230463848,0.159232189749,-0.070623939369,0.0297229376253,0.0469404401499,0.0161983010444,0.00659041209834,0.0100052002424,0.00261904196462,0.0369818033850604,-0.06605954439184737,1.324653396728214
1765471506.048313,8.51577877998352,0.0998121292094,0.160187812119,-0.0698024425792,0.0297520086753,0.0472296187938,0.0172829909732,0.0054526733354,0.0109698604029,0.000716427607868,0.0369818033850604,-0.06605954439184737,1.324653396728214
1765471506.0685616,8.536027431488037,0.10040363345,0.161148079242,-0.0691100844901,0.0297771416783,0.0475222181979,0.0179966623957,0.00452287779597,0.0117582107198,-0.000867271261361,0.0369818033850604,-0.06605954439184737,1.324653396728214
1765471506.0889492,8.55641508102417,0.100997042846,0.162113120141,-0.0696313537733,0.0297990078987,0.0478176022956,0.0157846988963,0.00376263492042,0.0124028015856,-0.00239423911798,0.0369818033850604,-0.06605954439184737,1.324653396728214
1765471506.1088958,8.576361656188965,0.101592040481,0.163083204421,-0.0700943617032,0.0298181851131,0.0481152812048,0.013806421716,0.00314081601725,0.0129300262372,-0.00362407987786,0.0369818033850604,-0.06605954439184737,1.324653396728214
1765471506.1290188,8.596484661102295,0.102188125649,0.164058159996,-0.0705061179791,0.0298351277003,0.0484147432683,0.0120363094935,0.00263213319376,0.0133613256445,-0.00461318299367,0.0369818033850604,-0.06605954439184737,1.324653396728214
1765471506.1491528,8.616618633270264,0.102785463589,0.165038775423,-0.070872532033,0.029850268333,0.0487158186701,0.010451548307,0.00221591244236,0.01371422878,-0.00540741098022,0.0369818033850604,-0.06605954439184737,1.324653396728214
1765471506.1692178,8.636683702468872,0.103383646585,0.166024816672,-0.0711989295512,0.0298639100928,0.0490181277521,0.00903223617614,0.00187532085451,0.0140030078447,-0.00604388722425,0.0369818033850604,-0.06605954439184737,1.324653396728214
1765471506.1886675,8.65613341331482,0.103976015531,0.166986202521,-0.0714826554006,0.0298044425994,0.0490106305305,0.00791379643048,0.000805209723187,0.010815695121,-0.00463943308231,0.03717179080051313,-0.06590671223479046,1.3247869542568815
1765471506.2094378,8.67690372467041,0.104568052488,0.167950952327,-0.07173482034,0.0297410767441,0.0489913234069,0.00693372859321,-7.04775743711e-05,0.00820747137318,-0.00347965711915,0.03717179080051313,-0.06590671223479046,1.3247869542568815
1765471506.2295964,8.697062253952026,0.105160523117,0.168919840154,-0.0715918671809,0.0296745413082,0.0489626961387,0.00694648405457,-0.000787188852085,0.00607275572746,-0.0024520201105,0.03717179080051313,-0.06590671223479046,1.3247869542568815
1765471506.2497332,8.717199087142944,0.105752322283,0.169890648523,-0.0714749189868,0.0296054141863,0.0489262411953,0.00690397780125,-0.00137372180083,0.00432577461897,-0.0016157910311,0.03717179080051313,-0.06590671223479046,1.3247869542568815
1765471506.2701936,8.737659454345703,0.106348026533,0.17087062848,-0.0713792552611,0.029533907033,0.0488839616809,0.00681589519066,-0.00185427394172,0.00289445603137,-0.000934564680498,0.03717179080051313,-0.06590671223479046,1.3247869542568815
1765471506.2901516,8.757617473602295,0.10693830118,0.171844077054,-0.0713034272418,0.029460895128,0.0488358637121,0.00669228631001,-0.00224730534933,0.00172381686162,-0.000380487679511,0.03717179080051313,-0.06590671223479046,1.3247869542568815
1765471506.3100471,8.777513027191162,0.10752832099,0.172819333868,-0.0712433917365,0.0293864166866,0.0487835803075,0.00654041380396,-0.00256888962652,0.000765982083123,7.04277973831e-05,0.03717179080051313,-0.06590671223479046,1.3247869542568815
1765471506.3304229,8.79788875579834,0.108117213691,0.173794777559,-0.0711968681076,0.0293107789173,0.0487278157631,0.00636677896984,-0.00283203024197,-1.77789742033e-05,0.000437508070753,0.03717179080051313,-0.06590671223479046,1.3247869542568815
1765471506.3504248,8.817890644073486,0.108705275049,0.174770756298,-0.0711616858314,0.0292341539389,0.0486691991302,0.00617681241782,-0.00304738017062,-0.000659196064037,0.00073649352803,0.03717179080051313,-0.06590671223479046,1.3247869542568815
1765471506.3705332,8.837999105453491,0.10929171117,0.175745831526,-0.070586144708,0.029156785726,0.0486082543919,0.00728177461322,-0.00322360199497,-0.0011840705808,0.0010837862632,0.03717179080051313,-0.06590671223479046,1.3247869542568815
1765471506.3901038,8.857569694519043,0.109862222601,0.176744879732,-0.0700979038694,0.0289302571797,0.0487815018619,0.00808464767061,-0.00500272433315,0.000986250548468,0.000731567035712,0.037078488616197884,-0.06581818293449133,1.3247962753206968
1765471506.410872,8.878337860107422,0.110430524558,0.177743825365,-0.0696837985929,0.028697278038,0.0489626622189,0.00867077893242,-0.00645869640939,0.00276236616058,0.000426253357707,0.037078488616197884,-0.06581818293449133,1.3247962753206968
1765471506.4310396,8.898505449295044,0.110995903672,0.178743201383,-0.0693341901578,0.0284590851953,0.0491502473341,0.00907386551314,-0.00765013472225,0.00421578152675,0.000162001058304,0.037078488616197884,-0.06581818293449133,1.3247962753206968
1765471506.4510808,8.918546676635742,0.111558392937,0.179744509201,-0.0690404092658,0.0282165209911,0.0493431357222,0.00932316698988,-0.00862521112553,0.00540526067345,-6.63674574993e-05,0.037078488616197884,-0.06581818293449133,1.3247962753206968
1765471506.4710286,8.938494443893433,0.112121393552,0.18075498729,-0.0687938965919,0.0279691072766,0.0495412141254,0.00944355182289,-0.00942407016261,0.00637977524744,-0.000263615983998,0.037078488616197884,-0.06581818293449133,1.3247962753206968
1765471506.491724,8.959189891815186,0.112676677821,0.181761140968,-0.0685905868044,0.0277200037648,0.0497420662853,0.00945732231181,-0.0100775192454,0.00717690668734,-0.000433352724923,0.037078488616197884,-0.06581818293449133,1.3247962753206968
1765471506.5143664,8.981832265853882,0.113239084189,0.182790495829,-0.0680524156229,0.0274642851993,0.0499489057259,0.0102552889232,-0.0106137314167,0.00783102280975,-0.000510147182039,0.037078488616197884,-0.06581818293449133,1.3247962753206968
1765471506.5325217,8.999987602233887,0.113786328759,0.183803478264,-0.0676010699341,0.0272106078696,0.0501552629967,0.0108172609849,-0.0110518022361,0.00836541796355,-0.00059163288516,0.037078488616197884,-0.06581818293449133,1.3247962753206968
1765471506.5527031,9.020169019699097,0.114328687396,0.184819053387,-0.0672217652018,0.0269555368303,0.0503633997215,0.0111811040386,-0.0114098584789,0.00880220469404,-0.000673942856201,0.037078488616197884,-0.06581818293449133,1.3247962753206968
1765471506.572548,9.040013790130615,0.114866066796,0.185837478571,-0.0669047082565,0.0266993474738,0.0505729714146,0.0113795548767,-0.0117026158598,0.00915933445166,-0.000754344088951,0.037078488616197884,-0.06581818293449133,1.3247962753206968
1765471506.592068,9.059533834457397,0.115432271683,0.186862652602,-0.066626211555,0.0267676380151,0.0508017362655,0.0117593105696,-0.00835733575826,0.00964607255241,0.00313979598961,0.03694718229088937,-0.06582612664468034,1.3246452740868893
1765471506.6129436,9.080409526824951,0.115994540579,0.187890943414,-0.0663935315853,0.0268481160922,0.0510321086605,0.0120384510904,-0.00562059424026,0.0100442683173,0.00631618695998,0.03694718229088937,-0.06582612664468034,1.3246452740868893
1765471506.6345177,9.101983547210693,0.116554103302,0.188922689251,-0.0661996881186,0.0269384956879,0.0512637948297,0.012233427865,-0.00338154209665,0.0103700503011,0.00890713618693,0.03694718229088937,-0.06582612664468034,1.3246452740868893
1765471506.6542258,9.121691703796387,0.117112659334,0.189959490512,-0.0660385134728,0.0270368853546,0.0514968303339,0.0123584114425,-0.00154916811961,0.0106366606304,0.0110210057949,0.03694718229088937,-0.06582612664468034,1.3246452740868893
1765471506.673871,9.141336917877197,0.117670009525,0.190999631913,-0.0671884366093,0.0271419296993,0.0517306320954,0.00937760759297,-4.97657416251e-05,0.0108548236073,0.0125035947366,0.03694718229088937,-0.06582612664468034,1.3246452740868893
1765471506.6942,9.161665916442871,0.118227984526,0.192045507671,-0.0681820952972,0.0272524015348,0.0519655058358,0.00691995078999,0.00117752562409,0.0110333944445,0.0137580973049,0.03694718229088937,-0.06582612664468034,1.3246452740868893
1765471506.7135568,9.181022644042969,0.118786533514,0.193096127265,-0.0690389862161,0.0273673613767,0.0522010895548,0.00491310756248,0.0021820863899,0.0111795579897,0.0148202627381,0.03694718229088937,-0.06582612664468034,1.3246452740868893
1765471506.7336917,9.201157569885254,0.119345746874,0.194150929864,-0.0697760590347,0.0274859774359,0.0524371327411,0.0032940146162,0.00300425744125,0.0112991838398,0.0157199848285,0.03694718229088937,-0.06582612664468034,1.3246452740868893
1765471506.753817,9.221282958984375,0.11990612757,0.195210274284,-0.0704082545568,0.027607591351,0.0526736043461,0.00200753268503,0.00367714652844,0.011397089171,0.0164824204522,0.03694718229088937,-0.06582612664468034,1.3246452740868893
1765471506.7746987,9.242164611816406,0.120467795597,0.196273897847,-0.0709487835555,0.0277316351288,0.0529103595737,0.00100538502419,0.00422783227661,0.011477213922,0.0171286881157,0.03694718229088937,-0.06582612664468034,1.3246452740868893
1765471506.7934473,9.260913133621216,0.121009339101,0.197363978835,-0.0714200972994,0.0276369990601,0.0533550563276,1.42564475003e-05,0.00224730226325,0.0138275927643,0.0147909818035,0.03721454701957651,-0.06579279135797311,1.324724769445428
1765471506.8147788,9.282244682312012,0.121566271512,0.198487695948,-0.072007740863,0.0275357083218,0.0538162707407,-0.00121437516716,0.000620054311997,0.015758716822,0.0128516319149,0.03721454701957651,-0.06579279135797311,1.324724769445428
1765471506.834833,9.302298784255981,0.122108745081,0.199589145902,-0.0725085271611,0.0274274538529,0.0542769205986,-0.00219818092893,-0.000708804526142,0.0173357298824,0.0112886846693,0.03721454701957651,-0.06579279135797311,1.324724769445428
1765471506.856289,9.323754787445068,0.122650745625,0.200697057249,-0.0729343799066,0.0273144870227,0.054743013376,-0.0029674475415,-0.00179471092089,0.0186244209892,0.0100290822746,0.03721454701957651,-0.06579279135797311,1.324724769445428
1765471506.875076,9.342541933059692,0.123192055067,0.2018124307,-0.0732956031295,0.0271976572226,0.0552136826381,-0.00355482549299,-0.00268254720854,0.0196780539116,0.00901411202364,0.03721454701957651,-0.06579279135797311,1.324724769445428
1765471506.895176,9.36264181137085,0.123732200061,0.202935492505,-0.0736010392771,0.027077669195,0.0556880291156,-0.00398847557574,-0.00340867576047,0.0205397814157,0.00819656597981,0.03721454701957651,-0.06579279135797311,1.324724769445428
1765471506.9157455,9.383211374282837,0.124274717957,0.204074588131,-0.0738589826425,0.0269545563163,0.0561683609674,-0.00429170606569,-0.00400330547166,0.0212454536766,0.00753763809235,0.03721454701957651,-0.06579279135797311,1.324724769445428
1765471506.935724,9.403189897537231,0.124812076396,0.205214933303,-0.0740748138845,0.0268297670051,0.0566485115119,-0.00448708978437,-0.0044895879587,0.021822545698,0.0070076570554,0.03721454701957651,-0.06579279135797311,1.324724769445428
1765471506.9558566,9.423322439193726,0.125347884715,0.206364628724,-0.074805230522,0.0267031894876,0.0571309375684,-0.00589863049234,-0.00488740120536,0.0222946475252,0.0064777026122,0.03721454701957651,-0.06579279135797311,1.324724769445428
1765471506.9759007,9.443366527557373,0.125881467085,0.207522785237,-0.0754275002887,0.0265752258201,0.0576148473908,-0.00698959291797,-0.00521286425894,0.0226808883142,0.006069776136,0.03721454701957651,-0.06579279135797311,1.324724769445428
1765471506.9952571,9.462723016738892,0.126403885385,0.208682884495,-0.0759613320184,0.0263536786456,0.0580231045777,-0.00792297551555,-0.00649564954814,0.0221465562032,0.00432788761846,0.03719394081064202,-0.06577989583263225,1.324687485190167
1765471507.0163236,9.483789443969727,0.12693088188,0.209867997866,-0.0764163542669,0.0261255080617,0.0584354109467,-0.00863003981235,-0.00754752979093,0.021708405411,0.00291809346671,0.03719394081064202,-0.06577989583263225,1.324687485190167
1765471507.0364401,9.503906011581421,0.127450036806,0.211051471256,-0.0767995003126,0.0258946060278,0.058842064523,-0.00914611331327,-0.00840798506058,0.0213499908855,0.00178062733341,0.03719394081064202,-0.06577989583263225,1.324687485190167
1765471507.0569315,9.524397373199463,0.127963085928,0.212237481243,-0.0771209076523,0.0256614417079,0.0592451686599,-0.00950087451246,-0.00911131980487,0.0210570234327,0.00086410696148,0.03719394081064202,-0.06577989583263225,1.324687485190167
1765471507.077266,9.544731855392456,0.128472475721,0.213432035536,-0.0773899614053,0.0254257699663,0.0596472283539,-0.00972043558555,-0.00968647599433,0.0208174475477,0.00012567757464,0.03719394081064202,-0.06577989583263225,1.324687485190167
1765471507.0972288,9.56469464302063,0.128978188716,0.214635564024,-0.0766968167143,0.0251879515345,0.0600486130982,-0.00764901657881,-0.0101569818072,0.0206214627898,-0.00029621284453,0.03719394081064202,-0.06577989583263225,1.324687485190167
1765471507.1179934,9.585459232330322,0.129491790037,0.215876506758,-0.076093974595,0.0249434345828,0.0604591469959,-0.00588570860428,-0.0105433030612,0.0204605443159,-0.000666983198884,0.03719394081064202,-0.06577989583263225,1.324687485190167
1765471507.1383586,9.60582447052002,0.129995922744,0.217113867494,-0.0755680237755,0.0246994420726,0.0608648865916,-0.00439693149084,-0.0108594467808,0.0203288576318,-0.000992147763237,0.03719394081064202,-0.06577989583263225,1.324687485190167
1765471507.1586494,9.626115322113037,0.130488507891,0.218342101383,-0.0751115039149,0.0244573832232,0.0612642917214,-0.00315018802799,-0.0111175091952,0.0202213641675,-0.0012767338263,0.03719394081064202,-0.06577989583263225,1.324687485190167
1765471507.1784036,9.645869493484497,0.13097678689,0.219579003893,-0.0747168738764,0.0242143371768,0.0616634752512,-0.00211177138328,-0.0113283599785,0.0201335362628,-0.0015257108654,0.03719394081064202,-0.06577989583263225,1.324687485190167
1765471507.1984303,9.66589617729187,0.131490542982,0.220815741571,-0.0743789277911,0.0242677354405,0.0619790238344,-0.00131199015586,-0.00823420588802,0.0191456054414,-0.00248236370829,0.03706368310501273,-0.06579874601972296,1.3246665793756098
1765471507.2186682,9.686134099960327,0.132001454859,0.222061922411,-0.0740881029806,0.0243319466573,0.0622915531183,-0.000668613207713,-0.00570323385791,0.0183374927219,-0.00327697708414,0.03706368310501273,-0.06579874601972296,1.3246665793756098
1765471507.238851,9.706316947937012,0.132509372186,0.223314129725,-0.074389050648,0.0244053771657,0.0626007528708,-0.00146645798772,-0.00363299809541,0.0176764882413,-0.00404120068077,0.03706368310501273,-0.06579874601972296,1.3246665793756098
1765471507.2588956,9.726361513137817,0.133015946034,0.224574106302,-0.0746487519517,0.0244861996887,0.0629077420689,-0.00213333590898,-0.00193919091017,0.0171356734419,-0.00465578404171,0.03706368310501273,-0.06579874601972296,1.3246665793756098
1765471507.2789755,9.74644136428833,0.133521350393,0.225840263938,-0.0748725095707,0.0245731436272,0.0632125680578,-0.00268708664107,-0.000553370229291,0.0166931954904,-0.00514941354821,0.03706368310501273,-0.06579874601972296,1.3246665793756098
1765471507.2994606,9.766926527023315,0.134027292913,0.227115329843,-0.0750651254418,0.0246650814383,0.0635163508538,-0.00314366422436,0.00058087175846,0.0163310439667,-0.00554551851853,0.03706368310501273,-0.06579874601972296,1.3246665793756098
1765471507.3199213,9.787387132644653,0.134538678546,0.228410597033,-0.0752312913653,0.0247614180919,0.0638222338259,-0.00351777080508,0.00151060137195,0.0160341910906,-0.00586339971028,0.03706368310501273,-0.06579874601972296,1.3246665793756098
1765471507.3399904,9.807456254959106,0.135044610109,0.229696873661,-0.0753729287167,0.0248609257209,0.0641230719877,-0.00381837630493,0.00227063726388,0.015791519633,-0.00611741206678,0.03706368310501273,-0.06579874601972296,1.3246665793756098
1765471507.3599176,9.827383518218994,0.135551255087,0.230989120072,-0.0754939312032,0.0249631335798,0.0644229337972,-0.0040573123221,0.00289216119645,0.0155930735857,-0.00632014580571,0.03706368310501273,-0.06579874601972296,1.3246665793756098
1765471507.3801537,9.847619533538818,0.13605888282,0.232287278049,-0.0757804682599,0.0250675458971,0.0647219854246,-0.00467936068167,0.00340053833685,0.0154307541177,-0.00651632672557,0.03706368310501273,-0.06579874601972296,1.3246665793756098
1765471507.4002178,9.86768364906311,0.136539431118,0.233599774773,-0.0760171272706,0.0248886120041,0.0650911892039,-0.00498790884161,0.000678109826291,0.0160737526524,-0.00433421774545,0.037287779788364485,-0.06572128132151528,1.3246404803969272
1765471507.4211779,9.888643741607666,0.137037569743,0.234964289616,-0.076220937848,0.0246992715739,0.0654741410083,-0.00518303301873,-0.00156104621192,0.0166026091663,-0.00253102171908,0.037287779788364485,-0.06572128132151528,1.3246404803969272
1765471507.4412546,9.90872049331665,0.137517748671,0.236289842857,-0.0763891596983,0.0245016811678,0.0658476544266,-0.00527786381389,-0.00338818654649,0.0170341534854,-0.00105250166183,0.037287779788364485,-0.06572128132151528,1.3246404803969272
1765471507.4617205,9.929186344146729,0.138001376135,0.23763514536,-0.0765302890929,0.0242968469139,0.0662260331678,-0.00529171945062,-0.0048827420197,0.0173871460343,0.000162829673914,0.037287779788364485,-0.06572128132151528,1.3246404803969272
1765471507.4817321,9.949198007583618,0.138478527718,0.238975189747,-0.0766460491685,0.0240874234345,0.066602465243,-0.00523882558679,-0.00610342701821,0.0176754543085,0.00116033022726,0.037287779788364485,-0.06572128132151528,1.3246404803969272
1765471507.5020106,9.969476461410522,0.138952853467,0.240321240506,-0.0767405730267,0.0238738212122,0.0669796056038,-0.00513169161613,-0.00710097556351,0.0179110609554,0.00197945872593,0.037287779788364485,-0.06572128132151528,1.3246404803969272
1765471507.522346,9.989811897277832,0.139436083553,0.241707921277,-0.078108656059,0.0236529200036,0.0673665165799,-0.00804054701819,-0.00791957878381,0.0181044032853,0.00241063651088,0.037287779788364485,-0.06572128132151528,1.3246404803969272
1765471507.5427306,10.010196447372437,0.139905741564,0.24307282276,-0.0792757100996,0.0234322169122,0.0677463171625,-0.0103359479821,-0.00858807936953,0.0182622935276,0.00281154293462,0.037287779788364485,-0.06572128132151528,1.3246404803969272
1765471507.5644546,10.031920433044434,0.140370642618,0.244441372672,-0.0802694940227,0.0232096365142,0.0681256593192,-0.0121089635637,-0.00913413484661,0.0183912639928,0.0031804554765,0.037287779788364485,-0.06572128132151528,1.3246404803969272
1765471507.5827982,10.050264120101929,0.140831953082,0.24581761262,-0.0811136152514,0.0229851136357,0.068505518319,-0.0134395261818,-0.00958048034546,0.0184966843925,0.00351706168523,0.037287779788364485,-0.06572128132151528,1.3246404803969272
1765471507.6030161,10.070482015609741,0.141280183163,0.247180617287,-0.0818226187125,0.0226675997966,0.0686800874914,-0.0142801611216,-0.0109498964988,0.0163228340455,0.00526808662658,0.037305718675019695,-0.06564634246515397,1.3245960056067227
1765471507.6245818,10.092047691345215,0.141729653192,0.248567633003,-0.0824225148846,0.0223422894646,0.0688507420923,-0.0147999887353,-0.0120721357237,0.0145413594203,0.00672786271101,0.037305718675019695,-0.06564634246515397,1.3245960056067227
1765471507.6447432,10.11220908164978,0.142172300382,0.249954996646,-0.0829231101058,0.0220136506199,0.0690133164233,-0.0150522224501,-0.0129904868303,0.0130835426223,0.00794324166252,0.037305718675019695,-0.06564634246515397,1.3245960056067227
1765471507.6639116,10.131377458572388,0.142605835854,0.251335723175,-0.0833362692683,0.0216839106217,0.0691682604719,-0.0150840559804,-0.0137408640539,0.0118923723677,0.00895352916724,0.037305718675019695,-0.06564634246515397,1.3245960056067227
1765471507.6841264,10.151592254638672,0.14303391446,0.252721559412,-0.0825746714525,0.0213514834399,0.0693190513112,-0.0123180671547,-0.014354351442,0.0109185049512,0.0100016393866,0.037305718675019695,-0.06564634246515397,1.3245960056067227
1765471507.704005,10.171470880508423,0.143456140763,0.254111652014,-0.0819051131824,0.0210169273382,0.0694663581755,-0.00989584185732,-0.0148560923595,0.0101220270762,0.0108311368905,0.037305718675019695,-0.06564634246515397,1.3245960056067227
1765471507.724255,10.191720962524414,0.143872579625,0.255506579959,-0.081316434349,0.0206804343345,0.069610927854,-0.00777545580666,-0.0152665767414,0.00947041243457,0.01148546587,0.037305718675019695,-0.06564634246515397,1.3245960056067227
1765471507.7444863,10.211952209472656,0.144285349323,0.256913959977,-0.0807989155622,0.0203405627591,0.0697542808162,-0.00591741893031,-0.0156027509045,0.00893675995846,0.0120001197083,0.037305718675019695,-0.06564634246515397,1.3245960056067227
1765471507.7646096,10.232075452804565,0.144692173032,0.258326591393,-0.080343360165,0.0199990716783,0.0698958183039,-0.00429188196007,-0.0158779987623,0.00849982364093,0.0124027793662,0.037305718675019695,-0.06564634246515397,1.3245960056067227
1765471507.7864451,10.253911018371582,0.145089777494,0.259733130572,-0.0799425863339,0.0196587366452,0.0700345702916,-0.00287501894941,-0.0161030520982,0.00814256754225,0.0127153981037,0.037305718675019695,-0.06564634246515397,1.3245960056067227
1765471507.8056223,10.273088216781616,0.145525819511,0.261151666114,-0.079603561997,0.0197657809611,0.070268536943,-0.00191776637686,-0.011360301736,0.00891310251462,0.00949849583613,0.037244495098272296,-0.06555444676278942,1.3245271628925441
1765471507.825471,10.2929368019104,0.145959966365,0.262584181923,-0.0793078744358,0.01988849045,0.0705066364401,-0.0011288034025,-0.00747640539203,0.00954410303826,0.00685179880185,0.037244495098272296,-0.06555444676278942,1.3245271628925441
1765471507.8455312,10.312997102737427,0.146387822231,0.264009607846,-0.0790508480782,0.0200267397526,0.0707455881882,-0.000489006993203,-0.00430080508395,0.0100600296439,0.00467696482749,0.037244495098272296,-0.06555444676278942,1.3245271628925441
1765471507.8656259,10.333091735839844,0.146813854504,0.265439319792,-0.0788283666294,0.0201762951457,0.0709864127011,2.37628708704e-05,-0.00170335243255,0.0104820269986,0.00288875503111,0.037244495098272296,-0.06555444676278942,1.3245271628925441
1765471507.8857133,10.353179216384888,0.147239181241,0.266873614938,-0.0786364601,0.0203351529853,0.0712288024109,0.000427531399111,0.000421760477305,0.0108272852754,0.00141770198167,0.037244495098272296,-0.06555444676278942,1.3245271628925441
1765471507.9056137,10.373079538345337,0.147664400876,0.268311635235,-0.0784715882693,0.0205016478029,0.0714723353953,0.000737988030788,0.00216053457281,0.011109776688,0.000207195903229,0.037244495098272296,-0.06555444676278942,1.3245271628925441
1765471507.9264638,10.393929719924927,0.148101080148,0.269791159523,-0.078329752411,0.0206760044438,0.0717226990755,0.000969705591306,0.00358879520807,0.0113418202672,-0.000792959113958,0.037244495098272296,-0.06555444676278942,1.3245271628925441
1765471507.9466531,10.414119005203247,0.148528913781,0.271239621824,-0.0782095010766,0.0208543237686,0.0719683403901,0.00113321591087,0.00475534200006,0.0115313442841,-0.00161491464821,0.037244495098272296,-0.06555444676278942,1.3245271628925441
1765471507.9667346,10.434200525283813,0.148958203291,0.272691322776,-0.0764548736902,0.0210366742585,0.0722144237289,0.00516494313878,0.00570863809912,0.0116862223459,-0.00197888059356,0.037244495098272296,-0.06555444676278942,1.3245271628925441
1765471507.9871578,10.454623699188232,0.149381452681,0.274220111796,-0.0749167317599,0.0209031604958,0.0723557472598,0.00876301780097,0.00290388257004,0.0105049488674,0.00177284312192,0.03727915364314615,-0.06548187146189556,1.3244191717103415
1765471508.0080276,10.475493431091309,0.149781762413,0.275669765169,-0.0736077588303,0.0207537003977,0.0724796261585,0.011685246591,0.000620457655313,0.00954324319854,0.00477181236559,0.03727915364314615,-0.06548187146189556,1.3244191717103415
1765471508.0281742,10.49564003944397,0.15018258484,0.277123760708,-0.0724902161518,0.0205965225496,0.0726003076989,0.0140327951219,-0.0012418974743,0.00875887867929,0.00717099058301,0.03727915364314615,-0.06548187146189556,1.3244191717103415
1765471508.0482845,10.515750408172607,0.150582930651,0.278581073531,-0.0715375936387,0.0204329703296,0.0727182691498,0.0158926167394,-0.00276254507945,0.0081184304593,0.00909035060047,0.03727915364314615,-0.06548187146189556,1.3244191717103415
1765471508.0688167,10.536282539367676,0.150982566794,0.28004289108,-0.0707269132124,0.0202641015445,0.0728341419159,0.0173389386847,-0.00400531173993,0.007595016821,0.0106254055636,0.03727915364314615,-0.06548187146189556,1.3244191717103415
1765471508.0887878,10.556253671646118,0.151380676737,0.281507956065,-0.0700390313324,0.0200908599106,0.0729481906817,0.0184347979791,-0.00502146187116,0.00716704682941,0.0118521291369,0.03727915364314615,-0.06548187146189556,1.3244191717103415
1765471508.1089375,10.576403379440308,0.151776454593,0.282974696592,-0.0718438869605,0.0199141184748,0.0730606061078,0.0135689364305,-0.00585246482145,0.00681705491904,0.0123807297469,0.03727915364314615,-0.06548187146189556,1.3244191717103415
1765471508.129059,10.596524953842163,0.15216983048,0.284443955049,-0.073404578655,0.0197344614151,0.0731717603715,0.00951831366378,-0.0065322224244,0.00653076272,0.0128777964873,0.03727915364314615,-0.06548187146189556,1.3244191717103415
1765471508.1488252,10.616291046142578,0.152560643978,0.285916065084,-0.0747519164357,0.0195523723678,0.0732819147025,0.0061706903925,-0.00708838212925,0.00629652600941,0.013340233026,0.03727915364314615,-0.06548187146189556,1.3244191717103415
1765471508.1692398,10.63670563697815,0.152948671165,0.287390964966,-0.0759128867236,0.0193682736835,0.0733912514073,0.00342839829218,-0.0075434828861,0.0061048521011,0.013766626909,0.03727915364314615,-0.06548187146189556,1.3244191717103415
1765471508.1886938,10.65615963935852,0.153343534652,0.288864938377,-0.0769192131166,0.0192768186891,0.0734537909868,0.00103306440962,-0.00687750621593,0.00543968124543,0.0119984567235,0.037437495214708176,-0.06527844340531634,1.3243240968594256
1765471508.2100704,10.677536249160767,0.153735202155,0.290339711591,-0.0777837174924,0.0191879052261,0.0735138200573,-0.000922937758204,-0.00633252841996,0.00489536285846,0.0105871205066,0.037437495214708176,-0.06527844340531634,1.3243240968594256
1765471508.22968,10.697145938873291,0.154124534101,0.291817475247,-0.0785248598461,0.0191008759186,0.0735719481662,-0.00250175095366,-0.00588649336501,0.00444986749436,0.00946249056799,0.037437495214708176,-0.06527844340531634,1.3243240968594256
1765471508.2498355,10.717301368713379,0.154511390576,0.293296800076,-0.0775087932175,0.0190154866533,0.0736284433295,0.000161709014918,-0.00552145156573,0.0040852673862,0.00887923396748,0.037437495214708176,-0.06527844340531634,1.3243240968594256
1765471508.2699573,10.737423181533813,0.154895788898,0.294777006821,-0.0766306094355,0.0189314801974,0.0736835726936,0.00236627565524,-0.00522271752294,0.00378689480385,0.00836568800843,0.037437495214708176,-0.06527844340531634,1.3243240968594256
1765471508.2900195,10.757485389709473,0.155278040207,0.296258690464,-0.0758731845081,0.018848560519,0.0737376179584,0.00417515264074,-0.00497823675861,0.0035427098549,0.00791417338767,0.037437495214708176,-0.06527844340531634,1.3243240968594256
