timestamp_abs,timestamp_rel,x,y,z,vx,vy,vz,ax,ay,az,roll,pitch,yaw
1765470650.5897253,0.9603190422058105,4.06251580065e-13,-8.51829526735e-13,-0.0243037917219,5.0863959023e-08,-1.06651701233e-07,-5.43959548498e-07,0.00318421365181,-0.00667666869779,-0.00974907998866,0.0352165520236366,-0.06735761488023323,1.3572835116683009
1765470650.5942914,0.9648852348327637,3.28931017825e-07,-5.98986521325e-07,-0.0244287318224,3.28133357434e-05,-5.97533974145e-05,-0.0003266129323,0.00154368556888,-0.00275828930921,-0.00415396438145,0.03525516369825354,-0.06739638051885069,1.3572616737473622
1765470650.6158092,0.9864029884338379,7.91748067067e-07,-1.1410763259e-06,-0.0244772133831,3.80920354104e-05,-5.36569805312e-05,-0.000528434444646,0.000818486389877,-0.00102616076768,-0.00168094797382,0.03525516369825354,-0.06739638051885069,1.3572616737473622
1765470650.6364138,1.0070075988769531,1.12639837422e-06,-9.99928595679e-07,-0.0245069760855,3.40362750373e-05,-2.52582446124e-05,-0.000641651834512,0.000402322972793,-3.21600110036e-05,-0.000261814018115,0.03525516369825354,-0.06739638051885069,1.3572616737473622
1765470650.6569479,1.0275416374206543,1.27016638829e-06,-2.62465326289e-08,-0.0245278005286,2.57027435652e-05,1.33534615903e-05,-0.000672964415038,0.000129320441478,0.000619902884395,0.000669295065574,0.03525516369825354,-0.06739638051885069,1.3572616737473622
1765470650.67595,1.046543836593628,1.20369421583e-06,1.82620568207e-06,-0.0245421832508,1.50489767522e-05,5.75052473651e-05,-0.000638427791949,-6.44164307353e-05,0.00108264081298,0.00133028300819,0.03525516369825354,-0.06739638051885069,1.3572616737473622
1765470650.6969125,1.0675063133239746,9.18861966035e-07,4.57757095353e-06,-0.0245514221325,2.98886822497e-06,0.000105021376058,-0.000561314403322,-0.000208831965019,0.00142757538547,0.00182319182699,0.03525516369825354,-0.06739638051885069,1.3572616737473622
1765470650.716551,1.0871448516845703,4.0950762138e-07,8.24672677892e-06,-0.024556723332,-1.00014232594e-05,0.000154791785857,-0.000462737855258,-0.000319968923408,0.00169302452443,0.00220264643286,0.03525516369825354,-0.06739638051885069,1.3572616737473622
1765470650.7369647,1.1075584888458252,-3.2994556579e-07,1.28384743605e-05,-0.0245591509709,-2.36194404667e-05,0.000206028958599,-0.000357485102786,-0.000407254667118,0.00190150535608,0.00250073309674,0.03525516369825354,-0.06739638051885069,1.3572616737473622
1765470650.756875,1.1274688243865967,-1.30670418519e-06,1.83771286283e-05,-0.0245595921488,-3.77031318887e-05,0.000258395881667,-0.00025355926347,-0.000476765236094,0.00206753042057,0.00273813675165,0.03525516369825354,-0.06739638051885069,1.3572616737473622
1765470650.7774847,1.148078441619873,8.48434630441e-06,2.49806866075e-05,-0.0245558264292,9.34557175725e-05,0.000313028443624,-6.090179505e-05,0.00115746698923,0.00221881320663,0.00445031238234,0.03526377735990426,-0.06738859493385142,1.3571922984009657
1765470650.7985032,1.1690969467163086,1.97750704081e-05,3.2581385978e-05,-0.0245508013667,0.000232116153646,0.000368375574624,0.000130986059627,0.00247858103545,0.0023411102771,0.00583432948207,0.03526377735990426,-0.06738859493385142,1.3571922984009657
1765470650.817212,1.1878058910369873,3.2792313728e-05,4.12029278901e-05,-0.0273577753317,0.000376621390033,0.000424291959387,-0.014718413058,0.00355105854899,0.0024403907733,0.00676735248799,0.03526377735990426,-0.06738859493385142,1.3571922984009657
1765470650.8372917,1.207885503768921,4.77460375596e-05,5.08594491619e-05,-0.0295403387836,0.000525678382141,0.000480623663973,-0.0239567985023,0.00442401571885,0.00252120143822,0.00757847915088,0.03526377735990426,-0.06738859493385142,1.3571922984009657
1765470650.857363,1.227956771850586,6.49259484762e-05,6.16431501466e-05,-0.0312418012601,0.000679005338582,0.000537637112999,-0.0294575922311,0.00513656361464,0.00258716282927,0.00828224676545,0.03526377735990426,-0.06738859493385142,1.3571922984009657
1765470650.8775697,1.2481634616851807,8.43503019294e-05,7.34339454037e-05,-0.03256223341,0.000834600247861,0.000594579074815,-0.0324652631471,0.00571799377942,0.0026409864988,0.00889056456978,0.03526377735990426,-0.06738859493385142,1.3571922984009657
1765470650.8976557,1.26824951171875,0.000106249162612,8.6309786713e-05,-0.0335886707884,0.000992475338781,0.000651728591489,-0.0338136982259,0.0061928935985,0.00268494852979,0.00941516798923,0.03526377735990426,-0.06738859493385142,1.3571922984009657
1765470650.9179833,1.2885770797729492,0.000130952316284,0.000100400259736,-0.0343896429197,0.00115324583509,0.000709490505999,-0.0340547001719,0.00658150505052,0.00272092274584,0.00986725259852,0.03526377735990426,-0.06738859493385142,1.3571922984009657
1765470650.9381895,1.3087832927703857,0.000158241068111,0.00011549998841,-0.0350045989489,0.00131453152184,0.000766970345858,-0.0335719321484,0.00689907227108,0.0027503203144,0.0102552247255,0.03526377735990426,-0.06738859493385142,1.3571922984009657
1765470650.958184,1.32877779006958,0.00018838316727,0.000131724493333,-0.0363876842105,0.00147705215053,0.000824574574939,-0.0358974668346,0.00715871918122,0.00277435613217,0.0104874264418,0.03526377735990426,-0.06738859493385142,1.3571922984009657
1765470650.977998,1.3485918045043945,0.000203571013348,0.000160347296955,-0.0374937352714,0.00145534066003,0.000998927190994,-0.0370663806486,0.00532456856967,0.0040831050597,0.00962575901734,0.035396327880784555,-0.06744001058764676,1.3571775178569156
1765470650.9986959,1.3692896366119385,0.000220751484239,0.000190739960767,-0.0383743077777,0.00142674467995,0.00117815649289,-0.0373655616333,0.00382422710992,0.00515366614885,0.00894891047746,0.035396327880784555,-0.06744001058764676,1.3571775178569156
1765470651.0197847,1.390378475189209,0.000239403367523,0.000223317154201,-0.0390730254958,0.00139260999369,0.00136145254898,-0.037049974964,0.00259661668326,0.00602962138349,0.00841829012825,0.035396327880784555,-0.06744001058764676,1.3571775178569156
1765470651.0391295,1.4097232818603516,0.000259182699359,0.000258543472244,-0.0396262625654,0.00135408872291,0.00154865854664,-0.0362996851533,0.0015913808199,0.00674690236893,0.00800299363271,0.035396327880784555,-0.06744001058764676,1.3571775178569156
1765470651.0592468,1.4298405647277832,0.000279410838769,0.000296369664746,-0.0400545848214,0.00131157497943,0.00173778121216,-0.035253047817,0.000769259835093,0.00733352265539,0.00767882818247,0.035396327880784555,-0.06744001058764676,1.3571775178569156
1765470651.0797126,1.4503064155578613,0.000299931283669,0.000337179889179,-0.0403843257906,0.00126604913632,0.00192903623235,-0.0340052835297,9.67515444233e-05,0.00781338755777,0.00742608641395,0.035396327880784555,-0.06744001058764676,1.3571775178569156
1765470651.0997708,1.4703645706176758,0.00032046871188,0.000381139626293,-0.0378029682724,0.00121806654691,0.00212194840635,-0.0245046074757,-0.00045341231392,0.0082059542069,0.00764457742434,0.035396327880784555,-0.06744001058764676,1.3571775178569156
1765470651.1216943,1.4922881126403809,0.000340830558408,0.00042844282133,-0.0356088799744,0.00116807519674,0.00231635405959,-0.0168274568625,-0.000903586152088,0.00852717348093,0.00774954966073,0.035396327880784555,-0.06744001058764676,1.3571775178569156
1765470651.1399558,1.510549545288086,0.000360857887517,0.000479269623638,-0.0337414053787,0.00111640880491,0.0025121654138,-0.0106194609922,-0.00127204326455,0.00879008419706,0.00777132306746,0.035396327880784555,-0.06744001058764676,1.3571775178569156
1765470651.162174,1.5327677726745605,0.000380398629345,0.000533739621138,-0.0321502359394,0.00106334458344,0.00270918090711,-0.00560266358449,-0.00157365793422,0.00900529982492,0.0077333815365,0.035396327880784555,-0.06744001058764676,1.3571775178569156
1765470651.1798859,1.5504796504974365,0.000437501219574,0.000568668567009,-0.0308021551168,0.00139061461702,0.00267611223204,-0.00174290691677,0.0023803912551,0.0066416505517,0.00528807733484,0.03576444748364996,-0.067258703412872,1.3573112085436376
1765470651.201991,1.572584867477417,0.000495498355703,0.000606333673283,-0.029655173392,0.00173237857365,0.00263436592865,0.00131197854172,0.00561595416126,0.00470749759977,0.00324526343412,0.03576444748364996,-0.067258703412872,1.3573112085436376
1765470651.220573,1.5911667346954346,0.000555709709618,0.000645953477024,-0.0286802282971,0.00208600115053,0.0025855346315,0.00370737022693,0.0082636764717,0.00312474366447,0.00153747839991,0.03576444748364996,-0.067258703412872,1.3573112085436376
1765470651.2420826,1.6126763820648193,0.000619268574179,0.000686936478242,-0.0295718727281,0.00244953795307,0.00253095370721,0.00114910299056,0.0104307483087,0.0018293126955,-0.000182654790251,0.03576444748364996,-0.067258703412872,1.3573112085436376
1765470651.2611496,1.6317434310913086,0.00068694540934,0.000728625631941,-0.030334228924,0.00282075335772,0.00247155771073,-0.000937602809897,0.0122039227518,0.000769345486434,-0.00156140457122,0.03576444748364996,-0.067258703412872,1.3573112085436376
1765470651.284494,1.6550877094268799,0.000759602126747,0.000770715620979,-0.0309858277942,0.00319875680026,0.00240829623987,-0.00263195560957,0.0136551416448,-9.81633171668e-05,-0.00266501272582,0.03576444748364996,-0.067258703412872,1.3573112085436376
1765470651.3015506,1.6721444129943848,0.000837745915451,0.000812769527715,-0.0315422390835,0.00358198300291,0.00234184349143,-0.00399861937866,0.0148427214267,-0.000808074083045,-0.00354671797519,0.03576444748364996,-0.067258703412872,1.3573112085436376
1765470651.3215404,1.692134141921997,0.000921806031759,0.000854467861369,-0.0320166810828,0.00396923853694,0.00227281096678,-0.00509121045636,0.0158144025303,-0.00138892505996,-0.00424969146686,0.03576444748364996,-0.067258703412872,1.3573112085436376
1765470651.3419275,1.7125213146209717,0.00101223046694,0.000895611574213,-0.0324206495471,0.00435995313375,0.00220167223055,-0.00595467545426,0.0166094742717,-0.00186420259286,-0.0048090699857,0.03576444748364996,-0.067258703412872,1.3573112085436376
1765470651.3618555,1.7324492931365967,0.00110938030969,0.000936022782421,-0.0327640076195,0.00475361592043,0.00212879804556,-0.00662656858923,0.0172601021945,-0.00225313458216,-0.00525328042684,0.03576444748364996,-0.067258703412872,1.3573112085436376
1765470651.3815045,1.7520983219146729,0.00119040683355,0.000931055543521,-0.0311887998196,0.00492089514594,0.00161357741625,-0.0025035574947,0.015276218693,-0.00742691569064,-0.00427738826639,0.03577932373505158,-0.06720027199407999,1.3573282527746142
1765470651.401866,1.7724597454071045,0.0012777757799,0.000923286898024,-0.0298359810108,0.00508119554572,0.00107942417872,0.000865880576181,0.0136525394828,-0.0116613179716,-0.00353228473737,0.03577932373505158,-0.06720027199407999,1.3573282527746142
1765470651.4216213,1.79221510887146,0.00137071653291,0.000910931983773,-0.0286759579687,0.00523549962867,0.000529869762532,0.00359590685728,0.0123237261846,-0.0151267377572,-0.00296870626863,0.03577932373505158,-0.06720027199407999,1.3573282527746142
1765470651.441786,1.8123798370361328,0.00146876242397,0.00089256657856,-0.0276830126689,0.00538508083103,-3.25085885132e-05,0.00578385728576,0.0112361290345,-0.0179630885734,-0.00254715204506,0.03577932373505158,-0.06720027199407999,1.3573282527746142
1765470651.4625707,1.8331644535064697,0.00157131555825,0.000867016412039,-0.0268351807792,0.00553049713686,-0.000604948493919,0.0075123695906,0.0103461025056,-0.0202841938388,-0.00223625245972,0.03577932373505158,-0.06720027199407999,1.3573282527746142
1765470651.482729,1.8533227443695068,0.00167805970314,0.000833337481026,-0.0261131326788,0.0056726098384,-0.00118569962323,0.00885228999208,0.00961775753202,-0.0221836488531,-0.00201095013866,0.03577932373505158,-0.06720027199407999,1.3573282527746142
1765470651.5029373,1.8735311031341553,0.00178950262347,0.00079051053675,-0.0254986094968,0.00581330192779,-0.00177644370925,0.00986452824054,0.00902110415033,-0.0237396646132,-0.00185116207439,0.03577932373505158,-0.06720027199407999,1.3573282527746142
1765470651.522987,1.893580675125122,0.00190387435878,0.000738286001342,-0.026824735276,0.0059505664853,-0.00236987214824,0.00617183289611,0.00853305377232,-0.02501245398,-0.00208371580511,0.03577932373505158,-0.06720027199407999,1.3573282527746142
1765470651.5432224,1.913816213607788,0.00202171999914,0.000675979566012,-0.0279711329502,0.00608606143855,-0.00296789301014,0.00309186380579,0.0081337594326,-0.0260537759679,-0.00222742039971,0.03577932373505158,-0.06720027199407999,1.3573282527746142
1765470651.5632994,1.9338932037353516,0.00214288860621,0.000603151772893,-0.028960797307,0.00622012497141,-0.00356973703394,0.000538338400042,0.00780703079202,-0.0269058534548,-0.0023047690517,0.03577932373505158,-0.06720027199407999,1.3573282527746142
1765470651.58272,1.9533138275146484,0.00227782206217,0.000536107194455,-0.0297960090578,0.006456957736,-0.00400932525448,-0.00117660858128,0.00868287512378,-0.0257768112291,0.00250063357817,0.03574524359547696,-0.06718054379606739,1.357406150236499
1765470651.6031559,1.9737496376037598,0.00241621337343,0.000458580331173,-0.0305112919766,0.00669694699726,-0.00444465055209,-0.00248814513917,0.00939966420641,-0.0248528055447,0.00646278900347,0.03574524359547696,-0.06718054379606739,1.357406150236499
1765470651.6251965,1.9957902431488037,0.0025594776859,0.000370169057068,-0.0311222924899,0.00694108779813,-0.00488041513096,-0.00345736321519,0.00998696579136,-0.024095720907,0.00973422083172,0.03574524359547696,-0.06718054379606739,1.357406150236499
1765470651.6451833,2.015777111053467,0.00270575874706,0.000272618596783,-0.0316403989449,0.00718593696893,-0.00530966948191,-0.0041372693793,0.0104673314986,-0.0234764862467,0.0124314237882,0.03574524359547696,-0.06718054379606739,1.357406150236499
1765470651.6640737,2.034667491912842,0.00285612693575,0.000165624255368,-0.0320776129427,0.00743232417016,-0.00573622721548,-0.00457333677532,0.0108602521993,-0.0229699760756,0.0146557224017,0.03574524359547696,-0.06718054379606739,1.357406150236499
1765470651.6845903,2.0551841259002686,0.00301100949218,4.91978429624e-05,-0.0324445145988,0.00768031767034,-0.00616134009974,-0.00480518767429,0.0111817532256,-0.022555532297,0.0164908867828,0.03574524359547696,-0.06718054379606739,1.357406150236499
1765470651.7045946,2.075188398361206,0.00317032550157,-7.63219220572e-05,-0.0327501281236,0.00792934889905,-0.00658468335818,-0.00486765558457,0.0114448121111,-0.0222164257015,0.0180050987876,0.03574524359547696,-0.06718054379606739,1.357406150236499
1765470651.7244635,2.095057249069214,0.00333531385748,-0.000211755900812,-0.0330032282457,0.00818081263672,-0.00700960653957,-0.00478800388967,0.011660275315,-0.0219386742262,0.0192557876725,0.03574524359547696,-0.06718054379606739,1.357406150236499
1765470651.74448,2.1150736808776855,0.00350411320004,-0.000355347457847,-0.0332096955959,0.00843173959738,-0.00743096437195,-0.00459598747508,0.0118365242991,-0.021711473412,0.0202874168996,0.03574524359547696,-0.06718054379606739,1.357406150236499
1765470651.764468,2.135061740875244,0.00367765824408,-0.000507713742371,-0.0333763817349,0.00868323526778,-0.00785136872897,-0.00431171844717,0.0119807132732,-0.0215256008381,0.0211383050165,0.03574524359547696,-0.06718054379606739,1.357406150236499
1765470651.7852328,2.1558265686035156,0.00386824188433,-0.000649885209031,-0.0335306387772,0.00905553230951,-0.00808307604298,-0.00442299566656,0.0134220136511,-0.0193021111,0.0159891390038,0.03606662472121148,-0.06703908833029214,1.3574768571634406
1765470651.8052044,2.175798177719116,0.00406423164946,-0.000799988897933,-0.0336564343685,0.00943309571858,-0.00830671618022,-0.00449573602399,0.0146014388457,-0.0174826154157,0.0117804286487,0.03606662472121148,-0.06703908833029214,1.3574768571634406
1765470651.825402,2.195995807647705,0.00426609944267,-0.000957255126968,-0.0333917480944,0.00981495064654,-0.00852371672683,-0.00366475993395,0.015566602508,-0.01599366035,0.00840931930229,0.03606662472121148,-0.06703908833029214,1.3574768571634406
1765470651.845394,2.2159876823425293,0.00447422538764,-0.00112104965219,-0.0331591355983,0.0102002867326,-0.00873525151435,-0.00297262132729,0.0163564360504,-0.0147751865306,0.00564084664566,0.03606662472121148,-0.06703908833029214,1.3574768571634406
1765470651.8655884,2.23618221282959,0.00468891397431,-0.00129084876084,-0.0329554289488,0.0105884300733,-0.00894228386199,-0.00240105067574,0.0170027871304,-0.0137780626723,0.0033667655323,0.03606662472121148,-0.06703908833029214,1.3574768571634406
1765470651.8857212,2.256314992904663,0.0049104961662,-0.00146629318605,-0.0327776806953,0.0109789604476,-0.00914571004979,-0.00193383943,0.0175317475192,-0.0129620370787,0.0014982670308,0.03606662472121148,-0.06703908833029214,1.3574768571634406
1765470651.905815,2.2764086723327637,0.00513915815217,-0.00164701696585,-0.0326231503828,0.0113713987087,-0.0093461452527,-0.00155676515703,0.0179646410714,-0.0122942135037,-3.73457620596e-05,0.03606662472121148,-0.06703908833029214,1.3574768571634406
1765470651.9259224,2.296516180038452,0.00537516202207,-0.00183281098111,-0.0324893273751,0.0117655243388,-0.00954421582423,-0.00125726997613,0.0183189360954,-0.0117476436406,-0.00129973314097,0.03606662472121148,-0.06703908833029214,1.3574768571634406
1765470651.9459753,2.3165690898895264,0.0056185398236,-0.00202335480904,-0.0323739087974,0.0121608705988,-0.00974024117582,-0.00102435927068,0.018608890736,-0.0113003314926,-0.00233768809359,0.03606662472121148,-0.06703908833029214,1.3574768571634406
1765470651.9670987,2.3376924991607666,0.00586942186252,-0.00221847256396,-0.0309912873512,0.0125572220711,-0.00993460132492,0.00220168149563,0.0188461860157,-0.0109342567816,-0.0029495473393,0.03606662472121148,-0.06703908833029214,1.3574768571634406
1765470651.9862273,2.356821060180664,0.00613667522252,-0.00241416579012,-0.0297985002735,0.0130408652124,-0.010089097359,0.00490324877988,0.0199918952213,-0.0102101783821,-0.00230408916635,0.036051569538674125,-0.06711594965606535,1.357417734987241
1765470652.0069983,2.377592086791992,0.00641205774032,-0.00261407526514,-0.028775191885,0.0135287863797,-0.0102409932036,0.00707697875721,0.0209295911359,-0.00961756259991,-0.00181787186991,0.036051569538674125,-0.06711594965606535,1.357417734987241
1765470652.026492,2.3970859050750732,0.00669579064626,-0.00281782875521,-0.0278997259212,0.0140199702384,-0.0103906473159,0.00879871285351,0.0216969843573,-0.00913257666035,-0.0014559539106,0.036051569538674125,-0.06711594965606535,1.357417734987241
1765470652.0467317,2.417325496673584,0.00698825640445,-0.00302527707572,-0.0271529765193,0.0145138961178,-0.0105385085815,0.0101346756351,0.0223250066599,-0.00873567194707,-0.0011904690358,0.036051569538674125,-0.06711594965606535,1.357417734987241
1765470652.067141,2.437734842300415,0.0072919649418,-0.00323786039043,-0.0265164433788,0.0150134576455,-0.0106861796389,0.0111428428498,0.022839542668,-0.00841048959942,-0.000999048219381,0.036051569538674125,-0.06711594965606535,1.357417734987241
1765470652.087726,2.458319902420044,0.00760300759779,-0.00345247742171,-0.0259787216486,0.0155119388931,-0.0108315105362,0.0118725659845,0.02326044301,-0.00814448419025,-0.000864632956305,0.036051569538674125,-0.06711594965606535,1.357417734987241
1765470652.1076746,2.4782683849334717,0.00792333503318,-0.00367031267537,-0.024975284379,0.0160117410553,-0.0109757996542,0.0136748418565,0.0236047754409,-0.00792686904478,-0.000669620862893,0.036051569538674125,-0.06711594965606535,1.357417734987241
1765470652.1275675,2.4981613159179688,0.00825573767258,-0.00389306446246,-0.0241198499715,0.016516413743,-0.0111204856013,0.0150354531073,0.023886822971,-0.00774861742283,-0.00054500774931,0.036051569538674125,-0.06711594965606535,1.357417734987241
1765470652.1531875,2.5237812995910645,0.00859763188374,-0.00411878604023,-0.0233954073559,0.0170216886003,-0.0112643334642,0.0160207998225,0.0241176958519,-0.00760270774062,-0.000472861827197,0.036051569538674125,-0.06711594965606535,1.357417734987241
1765470652.1723745,2.542968273162842,0.00894835616246,-0.00434693489445,-0.0227855700149,0.0175263475074,-0.011407165368,0.0166892959265,0.0243065422801,-0.00748335841638,-0.000439047356992,0.036051569538674125,-0.06711594965606535,1.357417734987241
1765470652.190898,2.5614917278289795,0.00927384260994,-0.00455578462343,-0.0222831806695,0.0176862075213,-0.011330015381,0.0169051535084,0.0206643641108,-0.004971537925,-0.00276154729965,0.03554507791123309,-0.067302250257884,1.3570992209208674
1765470652.2086823,2.5792760848999023,0.00960794416887,-0.00476678808039,-0.0218662193016,0.0178327821323,-0.0112436743823,0.0168920114268,0.0176849595786,-0.00291679787429,-0.00467877201395,0.03554507791123309,-0.067302250257884,1.3570992209208674
1765470652.230532,2.601125717163086,0.00994889917762,-0.0049787647221,-0.0215237280882,0.0179680096846,-0.0111497490631,0.0166909198194,0.0152480202123,-0.00123616778097,-0.00626117537321,0.03554507791123309,-0.067302250257884,1.3570992209208674
1765470652.2492347,2.619828462600708,0.0102955955945,-0.00519096903769,-0.0243655372469,0.0180939539282,-0.011049706933,0.00892801891699,0.0132549270142,0.000138364738725,-0.00815542615106,0.03554507791123309,-0.067302250257884,1.3570992209208674
1765470652.2696538,2.6402475833892822,0.0106478088644,-0.00540320871395,-0.0268239204521,0.0182127659385,-0.0109447173117,0.0024341022812,0.0116244338847,0.00126283088602,-0.0096036486844,0.03554507791123309,-0.067302250257884,1.3570992209208674
1765470652.2896829,2.6602766513824463,0.011004971911,-0.00561508018493,-0.0289475714044,0.0183257870447,-0.0108356499333,-0.00296416071204,0.0102902985581,0.00218291449966,-0.010701130661,0.03554507791123309,-0.067302250257884,1.3570992209208674
1765470652.3100781,2.6806719303131104,0.0113661513961,-0.00582597596398,-0.0307786710142,0.0184338519618,-0.0107232729385,-0.00741669714878,0.0091986875501,0.00293574172861,-0.0115236380976,0.03554507791123309,-0.067302250257884,1.3570992209208674
1765470652.332167,2.702760696411133,0.0117311554811,-0.00603573916624,-0.0323544398285,0.0185379872862,-0.0106081615717,-0.0110554087576,0.00830542030304,0.00355178160122,-0.0121317864338,0.03554507791123309,-0.067302250257884,1.3570992209208674
1765470652.350703,2.721296787261963,0.012099676566,-0.00624414829611,-0.0337075336233,0.0186389264312,-0.0104907906558,-0.0139952024136,0.00757439197552,0.00405593374522,-0.01257376505,0.03554507791123309,-0.067302250257884,1.3570992209208674
1765470652.3719046,2.7424983978271484,0.0124738491771,-0.00645234059044,-0.0348689006728,0.0187381773354,-0.010370994364,-0.0163389353333,0.00697553240252,0.00446893598646,-0.0128881710827,0.03554507791123309,-0.067302250257884,1.3570992209208674
1765470652.3918686,2.7624623775482178,0.0128545564529,-0.0066839444982,-0.0358390905897,0.0188948928586,-0.0105135853719,-0.0177449067375,0.00715302530916,0.00190806684961,-0.00783230586687,0.03556351614059269,-0.0672344811305199,1.3568363669212766
1765470652.41045,2.781043767929077,0.0132378533661,-0.00691449756771,-0.0315240951291,0.0190521352881,-0.0106654827109,-0.00649700997321,0.00729821446066,-0.000186723438635,-0.0026937499065,0.03556351614059269,-0.0672344811305199,1.3568363669212766
1765470652.429952,2.8005456924438477,0.0136239575718,-0.00714495711838,-0.0278008685866,0.0192098460901,-0.0108249396736,0.00284171612593,0.00741699353548,-0.00190046892054,0.00135671639291,0.03556351614059269,-0.0672344811305199,1.3568363669212766
1765470652.450078,2.820671796798706,0.0140146001869,-0.00737698648025,-0.0245916016343,0.0193685797427,-0.0109908091363,0.0105398431685,0.00751423803181,-0.00330351332442,0.00454109415961,0.03556351614059269,-0.0672344811305199,1.3568363669212766
1765470652.470852,2.8414456844329834,0.0144067213987,-0.00760941384568,-0.0218335181476,0.0195270603169,-0.0111615728644,0.0168200068296,0.00759378671907,-0.00445124244736,0.00703231064504,0.03556351614059269,-0.0672344811305199,1.3568363669212766
1765470652.4919913,2.8625850677490234,0.0148068207534,-0.00784641767939,-0.0194606967172,0.0196877306664,-0.0113377423106,0.0218930315864,0.0076589911322,-0.00539201226371,0.00897729137781,0.03556351614059269,-0.0672344811305199,1.3568363669212766
1765470652.5114796,2.882073402404785,0.0152051880465,-0.00808280019473,-0.0174358015188,0.019846754285,-0.0115161656628,0.0259181975016,0.00771229293881,-0.00616105117385,0.0104834277711,0.03556351614059269,-0.0672344811305199,1.3568363669212766
1765470652.5318363,2.9024300575256348,0.0156092969169,-0.00832317515556,-0.0157052430657,0.0200069820017,-0.0116982034561,0.029055067703,0.00775592475835,-0.00679057142995,0.0116450804838,0.03556351614059269,-0.0672344811305199,1.3568363669212766
1765470652.5518854,2.9224791526794434,0.0160138383843,-0.00856470044148,-0.0190102979418,0.0201663131093,-0.0118816396562,0.0200974818505,0.00779159584988,-0.00730523423594,0.011633761736,0.03556351614059269,-0.0672344811305199,1.3568363669212766
1765470652.5739276,2.944521427154541,0.0164265546517,-0.0088121407188,-0.0218705359454,0.020327700955,-0.0120687876596,0.0126158848204,0.00782082290218,-0.00772692239026,0.0117416099759,0.03556351614059269,-0.0672344811305199,1.3568363669212766
1765470652.5924134,2.9630072116851807,0.0168085637412,-0.00905490660743,-0.0243526813214,0.0201992151435,-0.0122064963319,0.00619800275963,0.00467517088693,-0.00753031921398,0.00911245065713,0.035561510447396714,-0.06727145745777996,1.3567024099184455
1765470652.6124983,2.9830920696258545,0.0171924336219,-0.00930062541195,-0.0264923277384,0.0200594898175,-0.0123434386839,0.000882822468633,0.00210318480122,-0.00736957014467,0.00705126485255,0.035561510447396714,-0.06727145745777996,1.3567024099184455
1765470652.6327834,3.0033771991729736,0.0175781264337,-0.0095498722011,-0.0283343965934,0.0199106198421,-0.0124801201219,-0.00348527968755,-1.14704737693e-06,-0.00723804945409,0.00544077569242,0.035561510447396714,-0.06727145745777996,1.3567024099184455
1765470652.6529365,3.0235302448272705,0.0179631178669,-0.00980156909164,-0.0299166723348,0.0197541385511,-0.0126160393862,-0.00703864871238,-0.00172245262587,-0.00713046789629,0.00418871243226,0.035561510447396714,-0.06727145745777996,1.3567024099184455
1765470652.6728241,3.0434179306030273,0.0183482244578,-0.0100566402588,-0.0312734107071,0.019591377625,-0.0127518388346,-0.00989418897797,-0.00313112157614,-0.00704242612034,0.0032199131984,0.035561510447396714,-0.06727145745777996,1.3567024099184455
1765470652.6930792,3.0636730194091797,0.0187316062916,-0.0103142441022,-0.0309659399249,0.0194235748499,-0.0128871350658,-0.0086675713861,-0.00428369361219,-0.00697039039544,0.00275172210461,0.035561510447396714,-0.06727145745777996,1.3567024099184455
1765470652.7132156,3.0838093757629395,0.0191131094969,-0.0105745512513,-0.0306931215989,0.0192516493996,-0.0130221028762,-0.00758524381792,-0.00522674657816,-0.00691144960745,0.00235735007634,0.035561510447396714,-0.06727145745777996,1.3567024099184455
1765470652.733435,3.1040287017822266,0.0194923563697,-0.0108375395317,-0.0304511648722,0.0190763710544,-0.0131567938284,-0.00663074851365,-0.00599839326285,-0.00686322170798,0.00202464898792,0.035561510447396714,-0.06727145745777996,1.3567024099184455
1765470652.7534833,3.124077081680298,0.0198693874455,-0.0111034355099,-0.0302367273834,0.0188982483768,-0.0132913760379,-0.00578925939262,-0.00662989930925,-0.00682375259507,0.00174351450792,0.035561510447396714,-0.06727145745777996,1.3567024099184455
1765470652.7747388,3.1453325748443604,0.0202436545223,-0.011372025003,-0.0300466814256,0.0187178733387,-0.0134257777838,-0.00504788751167,-0.00714671172404,-0.00679145183141,0.00150559181293,0.035561510447396714,-0.06727145745777996,1.3567024099184455
1765470652.7939098,3.164503574371338,0.020621429599,-0.0116339923862,-0.0298701484053,0.0185990807443,-0.0134673365109,-0.0042185333942,-0.00687105574395,-0.00574409005843,0.0035055370184,0.03530305066360453,-0.0672607340732032,1.356479237019097
1765470652.8139076,3.1845014095306396,0.020996652927,-0.0118985059681,-0.0297126007637,0.0184812001085,-0.013505163213,-0.00346035485709,-0.00664542670293,-0.00488680688849,0.00513615699914,0.03530305066360453,-0.0672607340732032,1.356479237019097
1765470652.8341033,3.2046971321105957,0.0213689842827,-0.0121648956523,-0.0282887352808,0.0183642098703,-0.0135398155845,0.000280715164532,-0.0064607651479,-0.00418518070353,0.00670668965975,0.03530305066360453,-0.0672607340732032,1.356479237019097
1765470652.8543043,3.224898099899292,0.0217385995182,-0.012432940746,-0.0270590809961,0.018247923172,-0.0135718967908,0.00339205311598,-0.00630963496641,-0.00361095780881,0.00794152417419,0.03530305066360453,-0.0672607340732032,1.356479237019097
1765470652.8742507,3.244844436645508,0.0221058742374,-0.0127026364169,-0.0259989007585,0.0181321098971,-0.0136019316161,0.0059603175142,-0.00618593204235,-0.0031409454629,0.00890873153029,0.03530305066360453,-0.0672607340732032,1.356479237019097
1765470652.8942828,3.2648766040802,0.0224706836041,-0.0129736592013,-0.025086668518,0.0180167324775,-0.0136302569952,0.00806072533379,-0.00608467955114,-0.00275623409669,0.009662945057,0.03530305066360453,-0.0672607340732032,1.356479237019097
1765470652.9142382,3.284832000732422,0.0228337685404,-0.0132463842585,-0.0243030527809,0.0179014738008,-0.0136572816115,0.00975972077997,-0.0060017798674,-0.00244125468026,0.0102483016243,0.03530305066360453,-0.0672607340732032,1.356479237019097
1765470652.935026,3.305619716644287,0.0231935459805,-0.0135194514017,-0.02363250204,0.0177868112325,-0.0136830268306,0.0111132422141,-0.00593394344735,-0.00218350851003,0.0106997216364,0.03530305066360453,-0.0672607340732032,1.356479237019097
1765470652.9547288,3.3253226280212402,0.0235510634971,-0.0137935278743,-0.0230599253159,0.0176723464308,-0.0137078507114,0.0121721587162,-0.00587842588829,-0.00197256815943,0.0110456323259,0.03530305066360453,-0.0672607340732032,1.356479237019097
1765470652.9756534,3.3462471961975098,0.0239458134505,-0.0141216703822,-0.0227468479134,0.0177348044233,-0.0140983026875,0.0124754899246,-0.00380872417828,-0.00580973646986,0.0103120637059,0.03546973125832986,-0.06735885907580501,1.356382031639309
1765470652.996399,3.366992712020874,0.0243173674893,-0.0144352128372,-0.0224973663787,0.0178114244225,-0.0144993388419,0.0126309517267,-0.00212327552297,-0.00893451050745,0.00970421394717,0.03546973125832986,-0.06735885907580501,1.356382031639309
1765470653.0163946,3.386988401412964,0.0246880314269,-0.0147522465828,-0.0222898796823,0.0178938050585,-0.0149111041528,0.012675255629,-0.00074838737968,-0.0114835141577,0.00919971827327,0.03546973125832986,-0.06735885907580501,1.356382031639309
1765470653.0365586,3.4071524143218994,0.0250585170054,-0.0150739653559,-0.02211853421,0.0179809421037,-0.0153318288709,0.012628110162,0.000374503176856,-0.0135653214243,0.00878057465467,0.03546973125832986,-0.06735885907580501,1.356382031639309
1765470653.0594292,3.430022954940796,0.0254295438791,-0.0154014707514,-0.021978216327,0.0180720378823,-0.0157602090432,0.0125062577036,0.00129239224783,-0.0152670617469,0.00843213328223,0.03546973125832986,-0.06735885907580501,1.356382031639309
1765470653.0771935,3.447787284851074,0.0258071463472,-0.0157405338703,-0.0218617434525,0.0181670043168,-0.0162000829437,0.0123240246897,0.00204483635435,-0.0166620717945,0.0081415791858,0.03546973125832986,-0.06735885907580501,1.356382031639309
1765470653.0975442,3.4681379795074463,0.0261795968989,-0.0160811180705,-0.0217723558089,0.0182641937175,-0.0166398433733,0.0120914265768,0.00265947992657,-0.017801603557,0.00790054400265,0.03546973125832986,-0.06735885907580501,1.356382031639309
1765470653.1176124,3.488206148147583,0.0265523605836,-0.0164282011821,-0.0264806838393,0.0183634390755,-0.0170828968814,0.000480136225653,0.00316170674429,-0.0187327178428,0.00679810565751,0.03546973125832986,-0.06735885907580501,1.356382031639309
1765470653.137692,3.5082857608795166,0.0269265429035,-0.016782981079,-0.0305312751089,0.0184644758351,-0.0175293851387,-0.00902313319506,0.00357233348891,-0.0194940081893,0.00606474309518,0.03546973125832986,-0.06735885907580501,1.356382031639309
1765470653.1576924,3.5282862186431885,0.027301902058,-0.0171453848627,-0.0340090763997,0.0185669155566,-0.0179782995325,-0.0167183541277,0.00390814682406,-0.020116596595,0.00560901541862,0.03546973125832986,-0.06735885907580501,1.356382031639309
1765470653.1771786,3.5477724075317383,0.0276748630878,-0.0175154729675,-0.0369897168736,0.0186275299307,-0.0184217559136,-0.0228780055462,0.00370907451776,-0.020537006692,0.00522274266729,0.03562039543581189,-0.06737593659629514,1.3564531380404141
1765470653.1979706,3.5685644149780273,0.0280493378632,-0.0178938754407,-0.0395369057657,0.0186874297191,-0.0188667213899,-0.0277168325876,0.00354618392359,-0.0208810065771,0.00501183371592,0.03562039543581189,-0.06737593659629514,1.3564531380404141
1765470653.2181911,3.58878493309021,0.0284249993453,-0.0182804684117,-0.041706468999,0.0187466950665,-0.0193126343996,-0.0314301468363,0.00341290332486,-0.0211624747053,0.00492881229542,0.03562039543581189,-0.06737593659629514,1.3564531380404141
1765470653.238347,3.608940839767456,0.0288022873095,-0.0186758733943,-0.0435485959911,0.0188055237822,-0.019759827997,-0.0341880567622,0.00330382889865,-0.0213928231197,0.00493682224807,0.03562039543581189,-0.06737593659629514,1.3564531380404141
1765470653.2591565,3.6297502517700195,0.0291806099293,-0.0190796153477,-0.0407059746387,0.0188639042487,-0.0202075015162,-0.0256878559277,0.00321457365339,-0.0215813164718,0.00583718481082,0.03562039543581189,-0.06737593659629514,1.3564531380404141
1765470653.278784,3.6493778228759766,0.0295602790964,-0.0194921346789,-0.038233278546,0.0189219697604,-0.0206559010467,-0.018466114655,0.00314152948224,-0.0217355745283,0.00647210745125,0.03562039543581189,-0.06737593659629514,1.3564531380404141
1765470653.298591,3.669184684753418,0.0299413100925,-0.0199135486732,-0.0360849143954,0.018979785191,-0.021104957225,-0.0123553367479,0.00308174740921,-0.0218618250731,0.00690326862277,0.03562039543581189,-0.06737593659629514,1.3564531380404141
1765470653.3188872,3.689481019973755,0.0303234564727,-0.0203436640523,-0.0342208894395,0.0190373618811,-0.0215543146687,-0.00720944184323,0.003032821578,-0.0219651489047,0.00717935782241,0.03562039543581189,-0.06737593659629514,1.3564531380404141
1765470653.339075,3.7096688747406006,0.0307068878981,-0.020782734405,-0.0326060890974,0.0190947698754,-0.0220041095388,-0.00289959503703,0.00299277822215,-0.0220497143143,0.00733884947818,0.03562039543581189,-0.06737593659629514,1.3564531380404141
1765470653.3591409,3.7297346591949463,0.0310916887086,-0.0212309164462,-0.0312094663434,0.019152056486,-0.0224543907267,0.000687085280596,0.00296000235013,-0.0221189319156,0.00741193357947,0.03562039543581189,-0.06737593659629514,1.3564531380404141
1765470653.3790364,3.7496302127838135,0.0314820422872,-0.0216686852836,-0.0300067967609,0.0191884107763,-0.0226431444888,0.0035224765613,0.00269284019018,-0.0192094642713,0.00572786822362,0.035564119513027154,-0.06732484135406844,1.3563387552715953
1765470653.4010692,3.771662950515747,0.0318670897103,-0.02210686545,-0.0289732983316,0.0192228151916,-0.0228140499114,0.0058071405412,0.00247446727211,-0.0168313245689,0.00430837441809,0.035564119513027154,-0.06732484135406844,1.3563387552715953
1765470653.419878,3.7904717922210693,0.0322528935149,-0.0225516715403,-0.0260685263087,0.0192564022585,-0.0229761892572,0.0124179312521,0.00229591604598,-0.0148868537824,0.00349174651774,0.035564119513027154,-0.06732484135406844,1.3563387552715953
1765470653.440237,3.81083083152771,0.0326399113492,-0.0230029256476,-0.0235759325537,0.0192893798576,-0.0231315466208,0.0177277534213,0.00214986025738,-0.0132962670343,0.00272078752471,0.035564119513027154,-0.06732484135406844,1.3563387552715953
1765470653.4604955,3.8310892581939697,0.0330283603271,-0.0234603064109,-0.0214419149918,0.0193218881319,-0.0232815034819,0.0219254907917,0.00203034072582,-0.0119946672493,0.00200190998782,0.035564119513027154,-0.06732484135406844,1.3563387552715953
1765470653.4803262,3.8509199619293213,0.03341682311,-0.0239216269395,-0.0196220714019,0.0193538756313,-0.0234262158721,0.0251731909114,0.00193256706027,-0.0109298857831,0.00133870253224,0.035564119513027154,-0.06732484135406844,1.3563387552715953
1765470653.500831,3.871424674987793,0.0338068126192,-0.0243883203355,-0.0180737442495,0.0193855821317,-0.0235674822032,0.0276140235077,0.00185254672535,-0.0100584428535,0.000732112196615,0.035564119513027154,-0.06732484135406844,1.3563387552715953
1765470653.521898,3.8924918174743652,0.0341968456453,-0.0248582663705,-0.0167633950237,0.0194169288626,-0.0237052019814,0.0293710018026,0.00178707664543,-0.00934545610704,0.000181770340466,0.035564119513027154,-0.06732484135406844,1.3563387552715953
1765470653.5407188,3.9113125801086426,0.0345877493531,-0.0253322053567,-0.0156585551091,0.0194480517604,-0.0238404093874,0.0305516398173,0.00173350170802,-0.00876201065583,-0.000314118078309,0.035564119513027154,-0.06732484135406844,1.3563387552715953
1765470653.5608628,3.9314565658569336,0.0349794511265,-0.0258098354351,-0.0185821170107,0.0194789881581,-0.0239735375201,0.0221029504832,0.00168965692479,-0.00828452919587,-0.00148380221033,0.035564119513027154,-0.06732484135406844,1.3563387552715953
1765470653.5803394,3.9509332180023193,0.0353594044239,-0.0262991986266,-0.0211163814837,0.019386815479,-0.0241880247131,0.0150556190554,0.000300083864585,-0.00880883798425,-0.00121258274012,0.03571894071852323,-0.06728696204875127,1.3565211818062657
1765470653.6017063,3.9723000526428223,0.0357418625787,-0.0267950586648,-0.0233137507239,0.0192895237225,-0.0244055197743,0.00914334705889,-0.000838152850489,-0.00923831343255,-0.00090036516584,0.03571894071852323,-0.06728696204875127,1.3565211818062657
1765470653.6213987,3.991992473602295,0.0361213044802,-0.0272912377837,-0.0252155298867,0.0191881026535,-0.0246233178534,0.00422311405601,-0.00176909925929,-0.00958957483623,-0.000566378809104,0.03571894071852323,-0.06728696204875127,1.3565211818062657
1765470653.6416032,4.012197017669678,0.0365009893281,-0.0277924809625,-0.0268576068699,0.019083220401,-0.0248428515856,0.000156706112301,-0.00253096752255,-0.00987704027253,-0.000225399265852,0.03571894071852323,-0.06728696204875127,1.3565211818062657
1765470653.66175,4.032343864440918,0.0368789026563,-0.0282967163576,-0.0282722956347,0.0189756593286,-0.025063034459,-0.00317245450404,-0.00315426171342,-0.0101122194303,0.000111939120447,0.03571894071852323,-0.06728696204875127,1.3565211818062657
1765470653.6817317,4.052325487136841,0.0372556667971,-0.0288051782998,-0.0294883425113,0.0188658245652,-0.0252841241587,-0.00586831991115,-0.00366428184781,-0.0103046584221,0.000438096993173,0.03571894071852323,-0.06728696204875127,1.3565211818062657
1765470653.7022638,4.072857618331909,0.0376343558927,-0.0293224195864,-0.0316346543012,0.0187534254717,-0.0255077938293,-0.0106399480551,-0.00408220157097,-0.0104623464128,0.000540326869625,0.03571894071852323,-0.06728696204875127,1.3565211818062657
1765470653.72221,4.092803716659546,0.0380087633383,-0.0298403812373,-0.033473868865,0.0186400081462,-0.0257306011647,-0.0144546291284,-0.00442406584065,-0.0105913374289,0.000699925435812,0.03571894071852323,-0.06728696204875127,1.3565211818062657
1765470653.7423646,4.1129584312438965,0.0383807243759,-0.0303617276319,-0.0350453335851,0.0185255029043,-0.0259535020381,-0.0174506828246,-0.00470367323189,-0.0106968379,0.000895389679912,0.03571894071852323,-0.06728696204875127,1.3565211818062657
1765470653.7623258,4.132919549942017,0.0387532779789,-0.0308909474216,-0.0363871693476,0.0184093305825,-0.0261782380427,-0.0197508557492,-0.00493263915648,-0.0107832305122,0.00111064956979,0.03571894071852323,-0.06728696204875127,1.3565211818062657
1765470653.7820628,4.152656555175781,0.0391227739429,-0.0313976748456,-0.0375291005129,0.0183059270504,-0.0261687132026,-0.0215663612584,-0.00497691327127,-0.00828737792696,-1.4026778967e-05,0.03598510702471984,-0.06731896159372425,1.3565420876208227
1765470653.8028934,4.173487186431885,0.0394972557241,-0.0319179440294,-0.0385037485184,0.0182004391137,-0.0261528362923,-0.022885482812,-0.00501323149607,-0.00624002055619,-0.000896670180972,0.03598510702471984,-0.06731896159372425,1.3565420876208227
1765470653.8234951,4.194088935852051,0.0398623109186,-0.0324302714535,-0.0393167860504,0.0180968349197,-0.0261264213574,-0.0237842441686,-0.00504289362947,-0.00456788520857,-0.00158381380099,0.03598510702471984,-0.06731896159372425,1.3565420876208227
1765470653.8464916,4.217085361480713,0.0402306695225,-0.0329522879026,-0.0379793838278,0.0179916230465,-0.0260951855717,-0.0195224423719,-0.00506718969415,-0.00319824978768,-0.0017352879362,0.03598510702471984,-0.06731896159372425,1.3565420876208227
1765470653.8642433,4.234837055206299,0.0405914727095,-0.0334677241449,-0.0368083636036,0.0178878608035,-0.026057794973,-0.0158770874037,-0.00508703144686,-0.00207971607928,-0.00190797651606,0.03598510702471984,-0.06731896159372425,1.3565420876208227
1765470653.8842547,4.254848480224609,0.0409502682377,-0.0339841325658,-0.0357888653646,0.0177840144297,-0.0260164880963,-0.0127665642351,-0.0051032479359,-0.00116554837013,-0.00209152790687,0.03598510702471984,-0.06731896159372425,1.3565420876208227
1765470653.904357,4.274950742721558,0.0413070020646,-0.0345010623033,-0.0349017877672,0.0176801095632,-0.0259719526937,-0.0101201059826,-0.00511650801249,-0.000418041693255,-0.00227840271845,0.03598510702471984,-0.06731896159372425,1.3565420876208227
1765470653.9244308,4.295024633407593,0.0416616685872,-0.0350182016574,-0.0341305982439,0.0175761563799,-0.0259247624083,-0.00787632779068,-0.00512735420531,0.000193387773353,-0.00246317370822,0.03598510702471984,-0.06731896159372425,1.3565420876208227
1765470653.9445858,4.3151795864105225,0.0420143506977,-0.0355354257455,-0.0334608895336,0.0174721375647,-0.0258753873503,-0.00598173667334,-0.00513622821,0.000693639617103,-0.00264201904702,0.03598510702471984,-0.06731896159372425,1.3565420876208227
1765470653.9647262,4.335319995880127,0.0423648691541,-0.0360522672698,-0.0328800429317,0.0173681114072,-0.0258242210478,-0.00438985932297,-0.00514348927905,0.00110296588031,-0.00281234344527,0.03598510702471984,-0.06731896159372425,1.3565420876208227
1765470653.9842324,4.354826211929321,0.0427120496207,-0.0365901697995,-0.0312733538168,0.0172459220917,-0.02597604519,-0.000370431844282,-0.00534717259438,-0.000812322799406,-0.00181377945302,0.03565494162857726,-0.06732770841342949,1.356416386417371
1765470654.0050352,4.37562894821167,0.043056657113,-0.0371277047673,-0.0298888960007,0.0171231198458,-0.026134812304,0.00293562731974,-0.00551385158101,-0.00237964988134,-0.00105366272535,0.03565494162857726,-0.06732770841342949,1.356416386417371
1765470654.0251288,4.3957226276397705,0.0433989594759,-0.0376660197594,-0.0286985148803,0.0169997398077,-0.0262992366425,0.00562785249455,-0.00565025192226,-0.0036622587641,-0.00048065032938,0.03565494162857726,-0.06732770841342949,1.356416386417371
1765470654.0452669,4.415860652923584,0.0437388534594,-0.0382055694575,-0.027677460793,0.0168759084445,-0.0264682705329,0.0077931691251,-0.00576187404515,-0.00471187143375,-5.37696190911e-05,0.03565494162857726,-0.06732770841342949,1.356416386417371
1765470654.065459,4.4360527992248535,0.0440786480217,-0.0387505252843,-0.0268023255249,0.016750898866,-0.0266418023172,0.00950874551176,-0.00585331491229,-0.00557171435916,0.000260047059642,0.03565494162857726,-0.06732770841342949,1.356416386417371
1765470654.0857744,4.4563682079315186,0.0444139902794,-0.0392944329487,-0.0260569113396,0.0166262708508,-0.0268178555704,0.0108385277034,-0.00592811791893,-0.00627510703322,0.000486015350661,0.03565494162857726,-0.06732770841342949,1.356416386417371
1765470654.1066546,4.477248430252075,0.0447469057057,-0.0398408090267,-0.025423405052,0.0165013822956,-0.0269964413105,0.0118404493844,-0.00598932001168,-0.00685060667697,0.000644793956003,0.03565494162857726,-0.06732770841342949,1.356416386417371
1765470654.1259394,4.496533155441284,0.0450774514904,-0.0403900278,-0.0256203176633,0.0163762520826,-0.0271771343032,0.0108227573864,-0.00603940142774,-0.00732153562421,0.000614431445335,0.03565494162857726,-0.06732770841342949,1.356416386417371
1765470654.146353,4.516946792602539,0.0454055319796,-0.0409421625866,-0.0257987040615,0.0162509473017,-0.0273595277765,0.00989755825477,-0.00608038523651,-0.00770691733726,0.000596936349175,0.03565494162857726,-0.06732770841342949,1.356416386417371
1765470654.1662753,4.536869049072266,0.0457311613803,-0.0414974251066,-0.0259603657316,0.0161254892758,-0.0275433268708,0.00905618962679,-0.00611392592696,-0.00802230941851,0.000589277502916,0.03565494162857726,-0.06732770841342949,1.356416386417371
1765470654.1864836,4.557077407836914,0.046072558268,-0.0420605938167,-0.0260994174368,0.0161757937607,-0.0277665791148,0.00844944265317,-0.00420242344995,-0.00869964603357,0.0025699320931,0.035647056175037106,-0.0672380763979915,1.3562648525513454
1765470654.206474,4.577067852020264,0.0464115712726,-0.0426262271633,-0.0262248091781,0.0162332514838,-0.0279919847098,0.00791816951632,-0.00263826940829,-0.0092539005097,0.00419595680194,0.035647056175037106,-0.0672380763979915,1.3562648525513454
1765470654.2268062,4.597399950027466,0.0467495730604,-0.0431957945523,-0.0263372679593,0.0162963697679,-0.0282194714168,0.00745378251883,-0.00135816703301,-0.00970750191501,0.00553141743193,0.035647056175037106,-0.0672380763979915,1.3562648525513454
1765470654.247766,4.618359804153442,0.0470921428881,-0.0437782712751,-0.0264365542616,0.0163639418812,-0.0284517574353,0.00704815826272,-0.000308061379352,-0.0100796044979,0.00663096930211,0.035647056175037106,-0.0672380763979915,1.3562648525513454
1765470654.2688317,4.63942551612854,0.0474293131812,-0.0443557643401,-0.0265270953912,0.0164357011107,-0.0286822598873,0.00669402911548,0.000550249274146,-0.0103837449527,0.00753353789068,0.035647056175037106,-0.0672380763979915,1.3562648525513454
1765470654.2875772,4.658170938491821,0.0477667472843,-0.0449375885092,-0.0267910683916,0.0165105413143,-0.0289139026594,0.0059508700498,0.00125213904726,-0.0106324580194,0.00824040984609,0.035647056175037106,-0.0672380763979915,1.3562648525513454
1765470654.3077304,4.678324222564697,0.0481052405672,-0.0455247331127,-0.0270201088519,0.0165879661755,-0.0291468183901,0.00533073188363,0.00182642670036,-0.0108359555611,0.00882825879089,0.035647056175037106,-0.0672380763979915,1.3562648525513454
1765470654.3276844,4.698278188705444,0.0484438913555,-0.0461152827933,-0.027218673767,0.016667418274,-0.0293801075227,0.00481676162913,0.00229621558537,-0.0110024241987,0.00931737681686,0.035647056175037106,-0.0672380763979915,1.3562648525513454
1765470654.3472383,4.717832088470459,0.0487833659738,-0.0467101302879,-0.0273903143591,0.0167485537891,-0.0296139397281,0.00439458426977,0.00268057113072,-0.0111386197241,0.00972465789795,0.035647056175037106,-0.0672380763979915,1.3562648525513454
1765470654.3660033,4.736597061157227,0.0491239390301,-0.0473095348148,-0.0275383102002,0.0168310823448,-0.0298482825585,0.00405145426955,0.00299507625169,-0.0112500639082,0.0100640469619,0.035647056175037106,-0.0672380763979915,1.3562648525513454
1765470654.393332,4.763925790786743,0.0494733334702,-0.0478947572861,-0.0276754638209,0.0169806195388,-0.0298805451696,0.0035613656147,0.0039757191733,-0.0091047145649,0.00766561714971,0.0358255961589917,-0.06723991980480853,1.3562207772353048
1765470654.408216,4.7788097858428955,0.0498233032481,-0.0484819924616,-0.027795059022,0.0171335236102,-0.0299043894581,0.00312039772724,0.00477806405018,-0.0073494272765,0.00570806365806,0.0358255961589917,-0.06723991980480853,1.3562207772353048
1765470654.4284465,4.7990403175354,0.050174999429,-0.0490719696895,-0.0282661078477,0.017289278932,-0.0299218135654,0.00185260759298,0.00543455667904,-0.00591322047869,0.00404146890813,0.0358255961589917,-0.06723991980480853,1.3562207772353048
1765470654.4490833,4.819677114486694,0.0505380248332,-0.0496801248238,-0.0286737115858,0.0174504474508,-0.0299367414492,0.000784530797444,0.00597385517836,-0.00473339889849,0.00268874731305,0.0358255961589917,-0.06723991980480853,1.3562207772353048
1765470654.4695528,4.840146541595459,0.0509007255564,-0.0502853772181,-0.0290260749526,0.017612922795,-0.029945898724,-0.000109702493639,0.0064154369311,-0.00376735192827,0.00159557132122,0.0358255961589917,-0.06723991980480853,1.3562207772353048
1765470654.4895985,4.86019229888916,0.0512599444638,-0.0508818174454,-0.0293289195886,0.017774861281,-0.0299500506081,-0.000850963158442,0.00677583238517,-0.00297891596071,0.000716001977415,0.0358255961589917,-0.06723991980480853,1.3562207772353048
1765470654.5096912,4.880285024642944,0.0516216225738,-0.0514790546903,-0.0295887485986,0.0179379583114,-0.0299514005501,-0.00146048613499,0.00707021048587,-0.00233490594328,8.32311236096e-06,0.0358255961589917,-0.06723991980480853,1.3562207772353048
1765470654.5298336,4.900427341461182,0.0519864414227,-0.0520777541366,-0.0298114470135,0.0181022051621,-0.0299505236543,-0.00195736673421,0.00731085825099,-0.00180844160698,-0.000560997811716,0.0358255961589917,-0.06723991980480853,1.3562207772353048
1765470654.550379,4.92097282409668,0.0523561554795,-0.0526803956147,-0.0300022811861,0.0182680982337,-0.029947938337,-0.00235820637068,0.00750781436369,-0.00137756135716,-0.00101911375749,0.0358255961589917,-0.06723991980480853,1.3562207772353048
1765470654.570214,4.940807819366455,0.0527286886268,-0.0532832083926,-0.0288792687152,0.0184346188884,-0.0299437381266,0.000376623643901,0.00766896808979,-0.00102500587253,-0.00114437230145,0.0358255961589917,-0.06723991980480853,1.3562207772353048
1765470654.590467,4.9610607624053955,0.053083572526,-0.0538876614579,-0.0279036836833,0.0183979115804,-0.0299533727624,0.00279912459708,0.00556063640578,-0.0009030944147,0.00109039268933,0.03555855600306241,-0.06735954567202354,1.3559206389804528
1765470654.611671,4.982264757156372,0.0534399207597,-0.0544910449862,-0.0270647075944,0.0183532473011,-0.0299625192888,0.00479632095258,0.00383639235325,-0.000803392310093,0.00288342050105,0.03555855600306241,-0.06735954567202354,1.3559206389804528
1765470654.6306987,5.00129246711731,0.0537974517475,-0.0550940234466,-0.0263446265333,0.0183022887174,-0.0299712875741,0.00642780940525,0.00242623837551,-0.000721852043683,0.00432012791918,0.03555855600306241,-0.06735954567202354,1.3559206389804528
1765470654.6512387,5.021832466125488,0.0541607755529,-0.0557050897151,-0.0257253429657,0.0182467041941,-0.0299799395038,0.00774867781589,0.0012704815216,-0.000655021950472,0.00547230440427,0.03555855600306241,-0.06735954567202354,1.3559206389804528
1765470654.6713252,5.041918992996216,0.054519520399,-0.0563079855689,-0.0251980246746,0.0181863786862,-0.0299881535417,0.00879881913244,0.000326039792678,-0.000600410871539,0.00639197894198,0.03555855600306241,-0.06735954567202354,1.3559206389804528
1765470654.6913314,5.061925172805786,0.054878590523,-0.0569113703694,-0.0247486523554,0.0181227152957,-0.0299961792853,0.00961969387412,-0.00044618743098,-0.000555757865881,0.007125404952,0.03555855600306241,-0.06735954567202354,1.3559206389804528
1765470654.7131345,5.083728313446045,0.0552374895958,-0.0575149395179,-0.0228990784204,0.0180563020792,-0.0300040451919,0.0137314492266,-0.00107780436141,-0.000519235462236,0.00798647884117,0.03555855600306241,-0.06735954567202354,1.3559206389804528
1765470654.7316668,5.102260589599609,0.0555959589522,-0.0581186849147,-0.0213142907173,0.0179876321465,-0.0300117799137,0.0170238101808,-0.0015945265388,-0.00048935669391,0.00862551942199,0.03555855600306241,-0.06735954567202354,1.3559206389804528
1765470654.753926,5.1245198249816895,0.0559632830621,-0.0587385047802,-0.0199483381596,0.0179161158609,-0.030019657584,0.0196260682834,-0.00201896820669,-0.000464813922538,0.00909481903489,0.03555855600306241,-0.06735954567202354,1.3559206389804528
1765470654.774176,5.144769668579102,0.0563203138083,-0.0593426651304,-0.0187939417431,0.0178439593713,-0.0300271911163,0.0216215943173,-0.0023655485982,-0.000444773375263,0.00942991943273,0.03555855600306241,-0.06735954567202354,1.3559206389804528
1765470654.7925873,5.1631810665130615,0.0567143964662,-0.0599483310218,-0.0178243994665,0.0181470470261,-0.0300484694901,0.0229024058137,0.00149022757444,-0.000580301942827,0.00710596801288,0.03528571514938379,-0.06739635139052627,1.35572276611146
1765470654.8128135,5.183407306671143,0.057109005118,-0.0605544046057,-0.0170067686715,0.0184637819624,-0.0300702307056,0.0237456562568,0.00464288673185,-0.000691116305614,0.00517183877065,0.03528571514938379,-0.06739635139052627,1.35572276611146
1765470654.832748,5.203341722488403,0.0575057929419,-0.0611614634462,-0.0163205732679,0.0187918935901,-0.0300924042667,0.0242224328287,0.00722194679997,-0.00078176895272,0.0035611620126,0.03528571514938379,-0.06739635139052627,1.35572276611146
1765470654.853245,5.223838806152344,0.0579082241895,-0.0617732802839,-0.019603263946,0.0191305848652,-0.0301150276083,0.0152323782032,0.00933432904856,-0.000856018112288,0.00148953182785,0.03528571514938379,-0.06739635139052627,1.35572276611146
1765470654.8734963,5.2440900802612305,0.0583108830551,-0.0623799226664,-0.0224450794933,0.0194754123504,-0.0301377698434,0.00771481379499,0.0110612513305,-0.000916718550459,-8.62335185644e-05,0.03528571514938379,-0.06739635139052627,1.35572276611146
1765470654.8934848,5.264078617095947,0.0587180790712,-0.0629871489773,-0.0248988810314,0.0198264571473,-0.0301607343898,0.00146701745032,0.012473690337,-0.000966365061756,-0.00127359795736,0.03528571514938379,-0.06739635139052627,1.35572276611146
1765470654.9134877,5.28408145904541,0.0591301585022,-0.0635946061981,-0.0270142671902,0.0201824839935,-0.0301838712836,-0.0036865911402,0.0136291466888,-0.0010069787637,-0.00215759751458,0.03528571514938379,-0.06739635139052627,1.35572276611146
1765470654.9338815,5.3044753074646,0.0595520167179,-0.0642088141463,-0.0288379497974,0.0205456456235,-0.0302073698496,-0.00790554751114,0.0145760124612,-0.00104026061308,-0.00280732363725,0.03528571514938379,-0.06739635139052627,1.35572276611146
1765470654.9544163,5.325010061264038,0.0599779522438,-0.0648206621161,-0.0304040193594,0.0209110849605,-0.0302308997656,-0.0113147835097,0.0153508475442,-0.00106749567139,-0.00327437169454,0.03528571514938379,-0.06739635139052627,1.35572276611146
1765470654.9750218,5.34561562538147,0.06044270583,-0.0654883995255,-0.0317695136176,0.0213321953205,-0.0303907049428,-0.0140422683151,0.0163320202934,-0.00257155578641,-0.0034597868746,0.03551045681706206,-0.06731741363134064,1.3556745628957294
1765470654.996071,5.366664886474609,0.060882662289,-0.066111783718,-0.0321749144538,0.0217335168236,-0.0305538155753,-0.0143972125136,0.0171296235404,-0.00379421839326,-0.00342099266576,0.03551045681706206,-0.06731741363134064,1.3556745628957294
1765470655.0161319,5.386725664138794,0.0613295540241,-0.0667366934446,-0.0325127579102,0.0221375245683,-0.0307209904449,-0.0145745607364,0.0177794827605,-0.00479040110848,-0.00337522685134,0.03551045681706206,-0.06731741363134064,1.3556745628957294
1765470655.0363367,5.406930446624756,0.0617835009905,-0.0673633355759,-0.0327925663529,0.0225436350985,-0.0308914958354,-0.0146055865046,0.0183097444429,-0.00560325027058,-0.00332623765238,0.03551045681706206,-0.06731741363134064,1.3556745628957294
1765470655.0563316,5.426925420761108,0.0622451596384,-0.0679926443149,-0.0330227854723,0.0229518181507,-0.0310648568859,-0.0145166758375,0.0187429089959,-0.00626725722331,-0.00327667562414,0.03551045681706206,-0.06731741363134064,1.3556745628957294
1765470655.076596,5.447189807891846,0.0627141504123,-0.0686241317574,-0.033210148291,0.0233613032028,-0.0312404494575,-0.0143302787017,0.0190969515578,-0.00680997643036,-0.00322842273544,0.03551045681706206,-0.06731741363134064,1.3556745628957294
1765470655.096897,5.4674906730651855,0.0631912491935,-0.0692588661768,-0.0333610851918,0.0237723386706,-0.0314180491384,-0.014065453897,0.0193864940419,-0.00725382212646,-0.0031827311414,0.03551045681706206,-0.06731741363134064,1.3556745628957294
1765470655.117037,5.487630844116211,0.0636758304342,-0.0698960399546,-0.0334804922581,0.0241840990195,-0.0315971027804,-0.0137385470154,0.0196233183343,-0.00761685501016,-0.00314044312957,0.03551045681706206,-0.06731741363134064,1.3556745628957294
1765470655.1381717,5.508765459060669,0.0641685957881,-0.0705365995714,-0.0335732758881,0.0245968941811,-0.0317775177617,-0.0133634142906,0.0198170810491,-0.00791387790578,-0.00310202785576,0.03551045681706206,-0.06731741363134064,1.3556745628957294
1765470655.1570199,5.527613639831543,0.0646692568485,-0.0711801866841,-0.0305256625759,0.0250102762434,-0.0319589502445,-0.00554831012387,0.0199756233926,-0.00815691076161,-0.00247928016749,0.03551045681706206,-0.06731741363134064,1.3556745628957294
1765470655.1783464,5.548940181732178,0.0651589130517,-0.0718946552148,-0.0278493315432,0.0247735060622,-0.0321900899281,0.00129782141323,0.0125103983754,-0.0087133630065,0.00164672064093,0.03536832307744669,-0.06727474895843974,1.3555350132546093
1765470655.1990151,5.569608926773071,0.0656041361534,-0.0725484889494,-0.0255500461917,0.0244729402529,-0.0324066393364,0.00692503758107,0.00645058920288,-0.00916505661384,0.00489632151666,0.03536832307744669,-0.06727474895843974,1.3555350132546093
1765470655.2192888,5.5898826122283936,0.0660526821965,-0.073206319128,-0.0235820326172,0.0241527374553,-0.032624746761,0.0115179419491,0.00151777585606,-0.00953274480196,0.00745789027781,0.03536832307744669,-0.06727474895843974,1.3555350132546093
1765470655.2400942,5.610687971115112,0.0665093604216,-0.0738778714022,-0.0218922720579,0.0238158060485,-0.0328470034165,0.0152418960402,-0.00251370914818,-0.00983324865492,0.00948094921204,0.03536832307744669,-0.06727474895843974,1.3555350132546093
1765470655.261427,5.632020711898804,0.0669580121352,-0.0745435500846,-0.0204529447766,0.0234650744408,-0.0330673795364,0.0182132574434,-0.00580122489638,-0.0100782976004,0.0110701397654,0.03536832307744669,-0.06727474895843974,1.3555350132546093
1765470655.2803423,5.650936126708984,0.0674045403673,-0.0752133315804,-0.0192263205823,0.0231032775806,-0.0332885896509,0.020548682418,-0.00848532346694,-0.0102783682844,0.0123164032374,0.03536832307744669,-0.06727474895843974,1.3555350132546093
1765470655.3003616,5.670955419540405,0.0678477588218,-0.0758872293294,-0.0220445330805,0.0227323342958,-0.0335104700342,0.0131826106239,-0.0106785065778,-0.0104418465,0.012560816501,0.03536832307744669,-0.06727474895843974,1.3555350132546093
1765470655.3205206,5.69111442565918,0.0682866006966,-0.0765650942808,-0.0244753952781,0.0223539134004,-0.0337328342007,0.00708815822454,-0.0124714356745,-0.0105754900832,0.0128618957884,0.03536832307744669,-0.06727474895843974,1.3555350132546093
1765470655.3404639,5.711057662963867,0.0687205571655,-0.0772473417919,-0.0265689510917,0.0219692202457,-0.0339556957936,0.00208637001219,-0.0139377696301,-0.0106847895109,0.0131951164724,0.03536832307744669,-0.06727474895843974,1.3555350132546093
1765470655.3608909,5.731484651565552,0.0691499575254,-0.0779355190939,-0.0283692329367,0.0215786883071,-0.034179445657,-0.00197832170597,-0.0151377178946,-0.0107742327499,0.0135423437108,0.03536832307744669,-0.06727474895843974,1.3555350132546093
1765470655.3803973,5.750991106033325,0.06960340799,-0.0786062541881,-0.0299228813815,0.0214808465058,-0.0341868150867,-0.00543373361163,-0.0128565518004,-0.00846661646878,0.0114711734715,0.03518062015486654,-0.06743312798070458,1.3553527198779933
1765470655.4009833,5.7715771198272705,0.0700508092781,-0.0792794097202,-0.0312534091705,0.0213916366722,-0.0341856028842,-0.00820869583882,-0.0109903036549,-0.00657872912197,0.00983170897278,0.03518062015486654,-0.06743312798070458,1.3553527198779933
1765470655.4211564,5.791750192642212,0.0704935053783,-0.0799550836027,-0.032389994396,0.0213091802444,-0.0341775914355,-0.0104016491172,-0.00946340936436,-0.00503413044786,0.00853728759236,0.03518062015486654,-0.06743312798070458,1.3553527198779933
1765470655.4413378,5.811931610107422,0.0709321771489,-0.080632695174,-0.031157412904,0.0212322423587,-0.0341640212651,-0.00687112206769,-0.00821407730178,-0.00377031234383,0.00793345607364,0.03518062015486654,-0.06743312798070458,1.3553527198779933
1765470655.4614391,5.832032918930054,0.0713674334753,-0.0813118550818,-0.0300873839095,0.0211597988028,-0.0341459100639,-0.0038994151444,-0.00719176601995,-0.00273614733306,0.00739510288113,0.03518062015486654,-0.06743312798070458,1.3553527198779933
1765470655.4815652,5.852159023284912,0.071799625836,-0.0819920097599,-0.0291599432494,0.0210910672505,-0.034124065462,-0.00141208649331,-0.00635519626595,-0.00188987752852,0.00691623951947,0.03518062015486654,-0.06743312798070458,1.3553527198779933
1765470655.5016477,5.872241497039795,0.0722292643893,-0.0826730668682,-0.0283574806654,0.021025333313,-0.0340991755016,0.000656316029614,-0.00567056268006,-0.00119730559637,0.00649121968685,0.03518062015486654,-0.06743312798070458,1.3553527198779933
1765470655.5219195,5.892513275146484,0.0726566137003,-0.0833547052739,-0.027664479163,0.0209620650191,-0.034071782651,0.00236295480504,-0.00511024546898,-0.000630491490997,0.00611478590234,0.03518062015486654,-0.06743312798070458,1.3553527198779933
1765470655.542825,5.913418769836426,0.073081911548,-0.0840366970749,-0.0270672871372,0.0209008179205,-0.0340423354296,0.00375783420425,-0.00465165783071,-0.000166586515773,0.00578207163229,0.03518062015486654,-0.06743312798070458,1.3553527198779933
1765470655.562212,5.932805776596069,0.0735053382989,-0.084718832954,-0.0265538926074,0.0208412299306,-0.0340112022869,0.00488465997434,-0.0042763253721,0.000213097933565,0.0054885985798,0.03518062015486654,-0.06743312798070458,1.3553527198779933
1765470655.5816097,5.9522035121917725,0.0739275519346,-0.085394182309,-0.0270266843838,0.0207618163388,-0.0338696314076,0.00368071180847,-0.00419651555475,0.00172429383592,0.00602460746595,0.03562242193495387,-0.06730197561939659,1.3553379393339435
1765470655.6024106,5.973004341125488,0.0743454412889,-0.0860646252981,-0.0274352276303,0.0206832288549,-0.0337226188448,0.00269143380048,-0.00413122894827,0.00296049328446,0.00647998807387,0.03562242193495387,-0.06730197561939659,1.3553379393339435
1765470655.6226358,5.993229627609253,0.074761740595,-0.0867340641424,-0.0277870103761,0.0206048604158,-0.033571110268,0.00188740627598,-0.00407781227763,0.00397193594247,0.00686711260053,0.03562242193495387,-0.06730197561939659,1.3553379393339435
1765470655.6425316,6.013125419616699,0.0751762997815,-0.087401797208,-0.0280891577708,0.020526702565,-0.0334159432634,0.00124237229084,-0.0040341047082,0.00479953713261,0.0071963515698,0.03562242193495387,-0.06730197561939659,1.3553379393339435
1765470655.6628108,6.033404588699341,0.0755893183504,-0.0880677758349,-0.0283479353165,0.0204486843988,-0.033257744214,0.000733466720963,-0.00399833743795,0.00547678905517,0.0074764571002,0.03562242193495387,-0.06730197561939659,1.3553379393339435
1765470655.6829531,6.053546905517578,0.0760031412083,-0.0887355051761,-0.0285689915267,0.0203703222541,-0.0330963803593,0.000341095908847,-0.00396904126178,0.00603151105357,0.00771496443673,0.03562242193495387,-0.06730197561939659,1.3553379393339435
1765470655.7032166,6.073810338973999,0.0764124500263,-0.0893960916063,-0.028756996531,0.0202926333333,-0.0329338052426,4.68322943628e-05,-0.00394508163575,0.00648518567512,0.00791781118016,0.03562242193495387,-0.06730197561939659,1.3553379393339435
1765470655.723341,6.093934774398804,0.0768203676948,-0.0900544078942,-0.0285494123208,0.0202149902705,-0.0327695294965,0.000707815665076,-0.00392547972377,0.00685634714434,0.00815947471554,0.03562242193495387,-0.06730197561939659,1.3553379393339435
1765470655.7435496,6.114143371582031,0.0772266647163,-0.090709913849,-0.028368286675,0.0201374237461,-0.0326039206324,0.00127594073217,-0.00390944091351,0.00716004141597,0.00834975976268,0.03562242193495387,-0.06730197561939659,1.3553379393339435
1765470655.7639177,6.134511470794678,0.0776350688858,-0.0913685014485,-0.0282099590764,0.0200591973773,-0.0324358630299,0.00176490990821,-0.00389629842209,0.00740889399874,0.00849920532739,0.03562242193495387,-0.06730197561939659,1.3553379393339435
1765470655.78341,6.154003858566284,0.0780403742257,-0.0920117621953,-0.0280763505429,0.0200020121788,-0.0322032049,0.00209430645966,-0.00366206600458,0.00832764756897,0.00752882919077,0.03585140385443025,-0.0672736836940037,1.3554653715921037
1765470655.8045928,6.175186634063721,0.0784439802131,-0.0926513564989,-0.0279608222069,0.0199457086501,-0.0319673211435,0.00235850273901,-0.00347047713603,0.00907913602166,0.00673029355086,0.03585140385443025,-0.0672736836940037,1.3554653715921037
1765470655.8243108,6.194904565811157,0.0788460252039,-0.0932870697051,-0.0278612749712,0.0198901202541,-0.0317288000633,0.00256678051975,-0.00331374265169,0.00969391158776,0.00607288084556,0.03585140385443025,-0.0672736836940037,1.3554653715921037
1765470655.8443785,6.214972257614136,0.0792467599656,-0.0939189445334,-0.0277758043271,0.0198350901004,-0.0314880460518,0.00272728558836,-0.00318549735501,0.0101969411233,0.00553140709621,0.03585140385443025,-0.0672736836940037,1.3554653715921037
1765470655.86446,6.235053777694702,0.0796571348128,-0.0945639885557,-0.0278854469075,0.0197788007462,-0.0312396850325,0.00241229552976,-0.00308012346509,0.0106102598202,0.0050485921765,0.03585140385443025,-0.0672736836940037,1.3554653715921037
1765470655.8850505,6.25564432144165,0.0800553001056,-0.0951873654583,-0.0279814099326,0.019724640684,-0.0309955073527,0.00214236453383,-0.00299408048589,0.0109477549252,0.00465834494471,0.03585140385443025,-0.0672736836940037,1.3554653715921037
1765470655.905198,6.275791883468628,0.0804524786209,-0.095806685268,-0.0280642508766,0.0196707497323,-0.0307500090165,0.00191391426692,-0.00292376060365,0.0112235777321,0.00434283516331,0.03585140385443025,-0.0672736836940037,1.3554653715921037
1765470655.9253461,6.295939922332764,0.08084853887,-0.0964215767126,-0.0281357541415,0.0196170989522,-0.0305034874794,0.00172121219967,-0.00286626146778,0.011449112425,0.00408779577282,0.03585140385443025,-0.0672736836940037,1.3554653715921037
1765470655.9455445,6.31613826751709,0.081243070477,-0.0970312722047,-0.028197447999,0.0195637068209,-0.0302563734078,0.00155932034785,-0.00281923756725,0.0116335590399,0.00388176025266,0.03585140385443025,-0.0672736836940037,1.3554653715921037
1765470655.9663596,6.336953401565552,0.0816457755092,-0.0976505972346,-0.0282502782905,0.0195091484578,-0.0300029972703,0.00142482771108,-0.0027806342846,0.0117849766111,0.00371472960557,0.03585140385443025,-0.0672736836940037,1.3554653715921037
1765470655.9863927,6.3569865226745605,0.0820477487502,-0.0982687220316,-0.0282955442024,0.0195435000498,-0.0299188616543,0.00132712030533,-0.00178625067716,0.0100968267522,0.00376885499202,0.035636490915650056,-0.06724058143389186,1.3554681679112484
1765470656.006012,6.376605749130249,0.0824486240251,-0.0988821669995,-0.0281505338984,0.0195814239418,-0.0298409085761,0.00168623701927,-0.000973572477691,0.00871715538832,0.00384940675767,0.035636490915650056,-0.06724058143389186,1.3554681679112484
1765470656.0266323,6.397226095199585,0.082848623089,-0.0994913368609,-0.0280257833207,0.0196222553742,-0.0297680515906,0.001980619071,-0.000309203882365,0.00758926697371,0.00391009368663,0.035636490915650056,-0.06724058143389186,1.3554681679112484
1765470656.0466607,6.417254447937012,0.0832484520773,-0.100097359212,-0.0279186367204,0.0196654437613,-0.0296992010236,0.00221954538741,0.000234134058288,0.00666685045253,0.00395529895053,0.035636490915650056,-0.06724058143389186,1.3554681679112484
1765470656.0668411,6.437434911727905,0.0836562013962,-0.100712440675,-0.0278259172096,0.0197107803676,-0.0296311830422,0.00241249216451,0.000679914735674,0.00591005540679,0.00398858332386,0.035636490915650056,-0.06724058143389186,1.3554681679112484
1765470656.0874925,6.458086252212524,0.0840574789641,-0.101314919601,-0.0277473650749,0.0197576349885,-0.0295681590971,0.00256328823357,0.00104421029064,0.00529159640852,0.00401252418422,0.035636490915650056,-0.06724058143389186,1.3554681679112484
1765470656.107868,6.478461742401123,0.0844590809345,-0.101915089695,-0.0276804665626,0.019805794591,-0.029507380916,0.00267935791487,0.00134203339356,0.0047859866766,0.00402932692224,0.035636490915650056,-0.06724058143389186,1.3554681679112484
1765470656.130306,6.500899791717529,0.0848662287635,-0.102520723304,-0.0276230999588,0.0198554069075,-0.0294472853445,0.00276670982958,0.00158603958517,0.00437174109282,0.00404071808477,0.035636490915650056,-0.06724058143389186,1.3554681679112484
1765470656.1491761,6.519769906997681,0.0852697976433,-0.103118270303,-0.0275750912174,0.0199056172982,-0.0293897091665,0.00282826606369,0.00178547671681,0.00403315972128,0.00404803844767,0.035636490915650056,-0.06724058143389186,1.3554681679112484
1765470656.1685898,6.539183616638184,0.0856725705118,-0.103711924397,-0.0267997785256,0.0199564074891,-0.0293336545883,0.00461390629737,0.00194844567225,0.00375648981532,0.0041912310599,0.035636490915650056,-0.06724058143389186,1.3554681679112484
1765470656.1892602,6.559854030609131,0.0860675327825,-0.104337027865,-0.0261439739984,0.0199249876188,-0.0296083337519,0.0058565278564,0.00117208366798,-9.33566356223e-05,0.00183237374508,0.03581595468360777,-0.06729041999697917,1.3554003904615057
1765470656.2084806,6.579074382781982,0.086463239576,-0.104962333773,-0.025584338241,0.0198908290945,-0.0298966624243,0.0067957309522,0.000537102626864,-0.00324211906099,-0.000120210040985,0.03581595468360777,-0.06729041999697917,1.3554003904615057
1765470656.228883,6.5994768142700195,0.0868588567053,-0.105588302152,-0.0251088655458,0.0198543982956,-0.0301961589508,0.00747754375337,1.77084133011e-05,-0.00581770616947,-0.00173712812542,0.03581595468360777,-0.06729041999697917,1.3554003904615057
1765470656.2504218,6.621015548706055,0.0872553934944,-0.106217873479,-0.0247063177345,0.0198161040091,-0.0305051608951,0.00794200129841,-0.000407370855437,-0.00792560159082,-0.00307713190595,0.03581595468360777,-0.06729041999697917,1.3554003904615057
1765470656.2697964,6.640390157699585,0.0876556207503,-0.106856560598,-0.0243660853273,0.0197761382164,-0.0308235976529,0.00822288494231,-0.000755745451938,-0.00965313165611,-0.00418940534199,0.03581595468360777,-0.06729041999697917,1.3554003904615057
1765470656.2898138,6.660407543182373,0.0880510797852,-0.107492182336,-0.0240832899803,0.0197350257707,-0.0311463856971,0.00835147837171,-0.00104054922301,-0.0110654248663,-0.00511048750614,0.03581595468360777,-0.06729041999697917,1.3554003904615057
1765470656.3098557,6.680449485778809,0.088445848412,-0.108131775142,-0.0232983161272,0.019692913359,-0.031474047922,0.00966083167043,-0.00127344482456,-0.0122203143381,-0.00576956615318,0.03581595468360777,-0.06729041999697917,1.3554003904615057
1765470656.32979,6.700383901596069,0.0888402903132,-0.108776550329,-0.0226323104719,0.0196499578704,-0.0318059443249,0.0106204838795,-0.00146396442377,-0.013165068459,-0.00633626808292,0.03581595468360777,-0.06729041999697917,1.3554003904615057
1765470656.350001,6.720594882965088,0.089233936956,-0.109426274516,-0.0220698155684,0.0196063348871,-0.0321410873606,0.0112850131929,-0.00161983253901,-0.013937991795,-0.006823141191,0.03581595468360777,-0.06729041999697917,1.3554003904615057
1765470656.370666,6.741259813308716,0.0896389780178,-0.110101597853,-0.0215902210142,0.0195611029504,-0.0324878443397,0.011696897206,-0.00174795033691,-0.0145733060516,-0.00724295623564,0.03581595468360777,-0.06729041999697917,1.3554003904615057
1765470656.3907807,6.761374473571777,0.090037646832,-0.110745852405,-0.0211914211879,0.0195776001663,-0.0326551568458,0.0119966631713,-0.00117952791668,-0.013186802519,-0.00645264746603,0.0359877493798639,-0.0672688109414467,1.3554258236499162
1765470656.41078,6.781373739242554,0.0904363920624,-0.111396501544,-0.0208595800322,0.0195960691853,-0.0328179669563,0.0121272879511,-0.000714994564608,-0.0120537065841,-0.00582049536913,0.0359877493798639,-0.0672688109414467,1.3554258236499162
1765470656.4318094,6.802403211593628,0.090834166399,-0.112050992614,-0.0205858930299,0.01961621474,-0.0329763410577,0.0121189225275,-0.000335286013853,-0.0111275164335,-0.00531506088757,0.0359877493798639,-0.0672688109414467,1.3554258236499162
1765470656.4510415,6.8216352462768555,0.0912316698825,-0.112709838195,-0.0220135234411,0.0196377067675,-0.0331313693741,0.00807432456886,-2.47908595745e-05,-0.0103701525208,-0.00522262060037,0.0359877493798639,-0.0672688109414467,1.3554258236499162
1765470656.4748917,6.84548544883728,0.0916780947575,-0.113455849982,-0.0232616118137,0.0196606624015,-0.033308499201,0.00459339926682,0.000233832435877,-0.00973931513655,-0.00509915954862,0.0359877493798639,-0.0672688109414467,1.3554258236499162
1765470656.4943845,6.864978313446045,0.0920760032211,-0.11412387446,-0.0243488661959,0.0196844791753,-0.0334580216528,0.00172200227765,0.000443335352618,-0.00922829283375,-0.00495123467148,0.0359877493798639,-0.0672688109414467,1.3554258236499162
1765470656.5140028,6.884596586227417,0.0924735760952,-0.11479483425,-0.0252819081472,0.0197089461188,-0.0336056976517,-0.000645096319346,0.000613594314989,-0.00881299490675,-0.00479081849526,0.0359877493798639,-0.0672688109414467,1.3554258236499162
1765470656.5341196,6.90471339225769,0.0928716009277,-0.1154697602,-0.0260827565256,0.0197339670983,-0.0337521353079,-0.00258496802775,0.0007523007511,-0.00847466032174,-0.00462615001171,0.0359877493798639,-0.0672688109414467,1.3554258236499162
1765470656.5549502,6.925544023513794,0.0932727476437,-0.116152990145,-0.0267707147573,0.0197595631381,-0.033898645081,-0.00416342363563,0.000865595628847,-0.00819830994809,-0.00446284505265,0.0359877493798639,-0.0672688109414467,1.3554258236499162
1765470656.5752027,6.945796489715576,0.0937398829464,-0.116910272733,-0.0273696558871,0.0200710457492,-0.0341308338587,-0.00535805838115,0.00406681165632,-0.00875432079646,-0.00312658452577,0.03584185392520879,-0.06729888385581857,1.3552117054982737
1765470656.5970685,6.967662334442139,0.0941689249154,-0.117603438302,-0.0256391810951,0.020390360873,-0.0343483362476,-0.000978150626394,0.00666146033134,-0.00920497854608,-0.00159546562037,0.03584185392520879,-0.06729888385581857,1.3552117054982737
1765470656.6172495,6.98784327507019,0.0946004249953,-0.11830027866,-0.0241579003188,0.0207176754004,-0.0345672241944,0.0026121153109,0.00877125706169,-0.00957142362815,-0.00041418923941,0.03584185392520879,-0.06729888385581857,1.3552117054982737
1765470656.6370616,7.007655382156372,0.0950351784595,-0.119000746151,-0.0228898983919,0.0210516184454,-0.0347872116239,0.00553379000252,0.0104904284077,-0.00987002200776,0.000494537554087,0.03584185392520879,-0.06729888385581857,1.3552117054982737
1765470656.6570935,7.027687311172485,0.0954741986772,-0.119705423998,-0.0218051579857,0.0213912091063,-0.035008233699,0.00788808245229,0.0118934268506,-0.0101137051418,0.00119048878232,0.03584185392520879,-0.06729888385581857,1.3552117054982737
1765470656.6772616,7.047855377197266,0.0959197729768,-0.120417150071,-0.0208775041078,0.0217365196836,-0.0352309265825,0.00976109059263,0.0130402049137,-0.0103128860276,0.00172060467913,0.03584185392520879,-0.06729888385581857,1.3552117054982737
1765470656.697258,7.067851781845093,0.0963687988595,-0.121130164793,-0.020087474787,0.0220847051291,-0.0354534568136,0.0112235536301,0.0139772675765,-0.0104756419933,0.00212077578311,0.03584185392520879,-0.06729888385581857,1.3552117054982737
1765470656.7175684,7.088162183761597,0.0968236251163,-0.121847722889,-0.0194158300576,0.0224362101147,-0.0356766326832,0.0123380030807,0.014743423744,-0.0106087136564,0.00242000877264,0.03584185392520879,-0.06729888385581857,1.3552117054982737
1765470656.7375333,7.108127117156982,0.0972843395958,-0.122569501093,-0.0186631905294,0.0227903360283,-0.0359002465059,0.0135937237932,0.0153700365854,-0.0107175484038,0.00267586073423,0.03584185392520879,-0.06729888385581857,1.3552117054982737
1765470656.7578511,7.1284449100494385,0.097750977781,-0.123295190703,-0.018025365028,0.0231464641468,-0.0361241121471,0.0145191166484,0.0158825919494,-0.0108065728058,0.00285869170437,0.03584185392520879,-0.06729888385581857,1.3552117054982737
1765470656.777331,7.147924900054932,0.0981877075783,-0.124021937427,-0.017489453277,0.0231446532372,-0.0363129300899,0.0151079908292,0.0123514604851,-0.0104903256185,0.00226718123495,0.03585650131120423,-0.0671796657851455,1.3549790783770552
1765470656.7983246,7.1689183712005615,0.0986352314772,-0.124761763907,-0.0170363917214,0.0231328459172,-0.0365031169566,0.015459858232,0.00945689984061,-0.0102310895432,0.00176356518424,0.03585650131120423,-0.0671796657851455,1.3549790783770552
1765470656.8184223,7.189016103744507,0.0990810322004,-0.125496765474,-0.0166617673276,0.0231078382366,-0.0366897992317,0.0156136515549,0.00709063625451,-0.0100191676108,0.00133630731984,0.03585650131120423,-0.0671796657851455,1.3549790783770552
1765470656.838749,7.20934271812439,0.0995298556248,-0.126235866039,-0.0163516227054,0.0230744847385,-0.0368757407697,0.0156040872808,0.00515547330835,-0.00984585493613,0.000974043645776,0.03585650131120423,-0.0671796657851455,1.3549790783770552
1765470656.8585851,7.2291789054870605,0.0999805857543,-0.126978507131,-0.016097229889,0.0230342094348,-0.0370609460504,0.0154605839803,0.00357260070007,-0.00970409328967,0.000667213401818,0.03585650131120423,-0.0671796657851455,1.3549790783770552
1765470656.8788598,7.249453544616699,0.100433108491,-0.127725510425,-0.017357587789,0.0229883433979,-0.0372457580193,0.0117228879029,0.00227748337661,-0.00958810292939,0.000130781457145,0.03585650131120423,-0.0671796657851455,1.3549790783770552
1765470656.8988779,7.269471645355225,0.100886426523,-0.128476093046,-0.018453201969,0.0229378225722,-0.0374300747994,0.00855178033451,0.0012177637305,-0.00949319472198,-0.000262895293199,0.03585650131120423,-0.0671796657851455,1.3549790783770552
1765470656.9196186,7.290212392807007,0.101340343931,-0.129230614287,-0.0194044007487,0.0228835040878,-0.0376140738356,0.00587257395484,0.000350550876753,-0.00941552737128,-0.000545815170443,0.03585650131120423,-0.0671796657851455,1.3549790783770552
1765470656.9390397,7.309633493423462,0.101795277192,-0.129990331778,-0.0202292119148,0.0228260590948,-0.0377981351774,0.00361929264247,-0.000359359280527,-0.00935194800791,-0.00074346409971,0.03585650131120423,-0.0671796657851455,1.3549790783770552
1765470656.9592705,7.329864263534546,0.102249306763,-0.130752540603,-0.0209433475256,0.022766042849,-0.0379816418225,0.00173587986987,-0.000940288523415,-0.00929992014066,-0.000875753719471,0.03585650131120423,-0.0671796657851455,1.3549790783770552
1765470656.9787238,7.34931755065918,0.102680151207,-0.131510222973,-0.0215531569727,0.0224723485555,-0.0380736393332,0.000331218377994,-0.00396459436949,-0.00824954455022,0.00102845739935,0.03574610496164204,-0.06717427288393808,1.354835001362082
1765470656.9997296,7.370323419570923,0.103109081771,-0.132270562001,-0.0220778249768,0.0221677124579,-0.0381616507258,-0.000791106361645,-0.00643955949775,-0.00738996119779,0.00260851416215,0.03574610496164204,-0.06717427288393808,1.354835001362082
1765470657.0198333,7.390427112579346,0.10353548744,-0.133033897041,-0.0243608438853,0.0218541014064,-0.038246535835,-0.0060272348994,-0.00846503592524,-0.0066864903497,0.00357480338474,0.03574610496164204,-0.06717427288393808,1.354835001362082
1765470657.0398562,7.410449981689453,0.103959005044,-0.133800785446,-0.0263220187963,0.0215329296577,-0.0383289992956,-0.0102412377052,-0.0101229686409,-0.0061106715854,0.00444649597462,0.03574610496164204,-0.06717427288393808,1.354835001362082
1765470657.0602076,7.4308013916015625,0.104378885842,-0.134570920306,-0.0280023146121,0.02120546867,-0.0384094643383,-0.0135795361334,-0.0114801567535,-0.00563930481971,0.00522922806667,0.03574610496164204,-0.06717427288393808,1.354835001362082
1765470657.0804002,7.45099401473999,0.104793487256,-0.135342155988,-0.0294365955903,0.0208733838232,-0.0384880205048,-0.0161691239502,-0.012590760624,-0.00525357954733,0.00592887224553,0.03574610496164204,-0.06717427288393808,1.354835001362082
1765470657.1004212,7.471014976501465,0.105202780512,-0.136115078699,-0.0306566269925,0.0205374091203,-0.0385651109236,-0.0181215368499,-0.0134995435481,-0.00493794896992,0.00655166365525,0.03574610496164204,-0.06717427288393808,1.354835001362082
1765470657.1207101,7.49130392074585,0.105606698778,-0.136890125793,-0.0316905310694,0.0201980952592,-0.0386410691566,-0.0195340143156,-0.0142432555661,-0.00467964938325,0.00710392239501,0.03574610496164204,-0.06717427288393808,1.354835001362082
1765470657.1406724,7.511266231536865,0.106004906924,-0.137667144605,-0.0325627512174,0.0198560513048,-0.0387160952633,-0.0204909787795,-0.0148519128713,-0.00446825582426,0.00759181333395,0.03574610496164204,-0.06717427288393808,1.354835001362082
1765470657.1607966,7.531390428543091,0.106397043842,-0.138445835138,-0.0332946289251,0.0195118478757,-0.0387903346378,-0.0210656620369,-0.015350037244,-0.00429525160156,0.0080212402467,0.03574610496164204,-0.06717427288393808,1.354835001362082
1765470657.1806722,7.5512659549713135,0.106805974383,-0.139257626573,-0.0339119802749,0.0193399014086,-0.0390749812874,-0.0213622789357,-0.0137962818725,-0.00646565533848,0.00784379105315,0.03572135836945032,-0.06711597878438977,1.3546375279672527
1765470657.201573,7.572166681289673,0.107204022498,-0.140061550531,-0.03441864775,0.0191776270017,-0.0393662475833,-0.021398380299,-0.0125260381687,-0.00824002840398,0.00771963410798,0.03572135836945032,-0.06711597878438977,1.3546375279672527
1765470657.2215252,7.592118978500366,0.107597014777,-0.140868885269,-0.0348349995015,0.0190198678451,-0.0396639193047,-0.0212188138068,-0.0114871399616,-0.00969124047528,0.00763524401523,0.03572135836945032,-0.06711597878438977,1.3546375279672527
1765470657.241569,7.612162828445435,0.107985305282,-0.141680076113,-0.03517368451,0.0188658562011,-0.0399668197006,-0.0208639157834,-0.0106372457804,-0.0108784373408,0.00758014721784,0.03572135836945032,-0.06711597878438977,1.3546375279672527
1765470657.2618403,7.632434129714966,0.108369429946,-0.142496009469,-0.0354459344464,0.0187148174012,-0.0402741182419,-0.0203679981154,-0.00994180661899,-0.0118498796814,0.0075462655199,0.03572135836945032,-0.06711597878438977,1.3546375279672527
1765470657.2880971,7.658690929412842,0.108807087563,-0.14344278414,-0.0357078166904,0.0185366040371,-0.0406233943799,-0.0196995945015,-0.0093597382948,-0.0126629570095,0.00753003921872,0.03572135836945032,-0.06711597878438977,1.3546375279672527
1765470657.3057082,7.676301956176758,0.109182688292,-0.144269195747,-0.0349282255721,0.0183910791076,-0.0409382294358,-0.0167666169409,-0.00888933705355,-0.0133200492588,0.00770129449037,0.03572135836945032,-0.06711597878438977,1.3546375279672527
1765470657.3255506,7.696144342422485,0.109554687937,-0.145101044787,-0.0342474681383,0.0182469868442,-0.0412551271114,-0.014207325764,-0.00850757393159,-0.0138533250381,0.00781044386661,0.03572135836945032,-0.06711597878438977,1.3546375279672527
1765470657.3453412,7.715934991836548,0.109923162715,-0.145938359904,-0.0336512363553,0.0181041284802,-0.0415736808927,-0.0119699368124,-0.00819688505254,-0.0142873189064,0.00787366495762,0.03572135836945032,-0.06711597878438977,1.3546375279672527
1765470657.3654523,7.736046075820923,0.110288277581,-0.146781395482,-0.0331279694163,0.0179622860244,-0.0418936292269,-0.0100116267652,-0.00794356397202,-0.0146411770683,0.00790301805443,0.03572135836945032,-0.06711597878438977,1.3546375279672527
1765470657.3859346,7.756528377532959,0.110632007482,-0.147597245662,-0.032667083514,0.0176395866576,-0.0418825145643,-0.0082739219786,-0.00972398871344,-0.011291946437,0.00818315944922,0.03574101582724647,-0.06716203898768054,1.3544095613779419
1765470657.405919,7.776512861251831,0.110971659998,-0.148417303469,-0.0322613609559,0.0173110075,-0.0418599371398,-0.00674822809413,-0.0111786473489,-0.00855552790339,0.00839506381832,0.03574101582724647,-0.06716203898768054,1.3544095613779419
1765470657.4261189,7.796712636947632,0.11130754767,-0.14924266317,-0.031904089749,0.0169769859051,-0.041828306694,-0.00540766043735,-0.0123681902304,-0.00631782958165,0.0085534778067,0.03574101582724647,-0.06716203898768054,1.3544095613779419
1765470657.4487622,7.8193559646606445,0.111652547898,-0.15010608378,-0.0290018989466,0.0166277805996,-0.0417931390393,0.0019251854494,-0.0133472108728,-0.00447615335242,0.00916395786598,0.03574101582724647,-0.06716203898768054,1.3544095613779419
1765470657.4672453,7.837839126586914,0.111980803142,-0.15094368884,-0.0265011728861,0.0162832132691,-0.0417470664324,0.00794152623352,-0.0141464288934,-0.00297271127286,0.00955690890906,0.03574101582724647,-0.06716203898768054,1.3544095613779419
1765470657.4887266,7.859320402145386,0.112299834454,-0.15177369968,-0.0243576609852,0.0159388341836,-0.0416950421929,0.0128250439404,-0.0147981737373,-0.00174668708647,0.00978674667813,0.03574101582724647,-0.06716203898768054,1.3544095613779419
1765470657.5076463,7.87824010848999,0.11261275761,-0.152604101817,-0.0225226810052,0.0155923995038,-0.0416388689534,0.0167454995213,-0.0153302564242,-0.000745764333649,0.00989740930557,0.03574101582724647,-0.06716203898768054,1.3544095613779419
1765470657.5275645,7.898158311843872,0.112919440054,-0.15343469961,-0.0209548092796,0.0152442147717,-0.0415792837103,0.0198462783022,-0.0157649991368,7.20481667719e-05,0.00992239775372,0.03574101582724647,-0.06716203898768054,1.3544095613779419
1765470657.548608,7.919201850891113,0.113226698903,-0.154284652867,-0.0196074040328,0.014887081745,-0.041516640769,0.0222583769251,-0.0161216331727,0.00074292720445,0.00988743231461,0.03574101582724647,-0.06716203898768054,1.3544095613779419
1765470657.569142,7.9397358894348145,0.1135204976,-0.155115395227,-0.0184714957371,0.0145359230483,-0.0414517502677,0.0240703310359,-0.0164127756347,0.00129060733333,0.00981132339211,0.03574101582724647,-0.06716203898768054,1.3544095613779419
1765470657.5938256,7.964419364929199,0.113857507591,-0.155976811333,-0.0175040678958,0.0146692387459,-0.0416757570452,0.0254988321344,-0.0113170972987,-0.00145268188741,0.0111813653969,0.03568788992468859,-0.06711947834450971,1.3542239390499633
1765470657.6089404,7.979534149169922,0.114189383348,-0.156837944375,-0.0212818149499,0.0148206874806,-0.04190939453,0.0156033198099,-0.00715128331119,-0.0036953730178,0.0113987956747,0.03568788992468859,-0.06711947834450971,1.3542239390499633
1765470657.630216,8.000809669494629,0.114517911295,-0.157699837527,-0.0245425556698,0.0149869088952,-0.0421508734418,0.00740954309796,-0.00374486902693,-0.00552923672959,0.0117121801354,0.03568788992468859,-0.06711947834450971,1.3542239390499633
1765470657.6490655,8.019659280776978,0.114844404365,-0.15856293785,-0.0273517253887,0.0151652016028,-0.0423986837056,0.000681165379847,-0.00095907750226,-0.0070289844289,0.0120851183535,0.03568788992468859,-0.06711947834450971,1.3542239390499633
1765470657.668969,8.039562702178955,0.115170652206,-0.159429617018,-0.029767377361,0.0153533199401,-0.0426519275719,-0.00478924124206,0.00132012759857,-0.00825600826609,0.0124902619368,0.03568788992468859,-0.06711947834450971,1.3542239390499633
1765470657.6891878,8.059781551361084,0.115497093084,-0.160298950361,-0.0318396447672,0.015549538903,-0.0429094209245,-0.00918059296445,0.00318487170862,-0.00925990452469,0.0129074851745,0.03568788992468859,-0.06711947834450971,1.3542239390499633
1765470657.7094107,8.080004453659058,0.115825004623,-0.161172735514,-0.0336130430677,0.0157524807967,-0.0431706649303,-0.0126490858394,0.00471092389658,-0.0100814639406,0.0133221821049,0.03568788992468859,-0.06711947834450971,1.3542239390499633
1765470657.7295375,8.100131273269653,0.116154524612,-0.162049941449,-0.035125665717,0.0159608427754,-0.0434347171361,-0.015330222263,0.00595969076915,-0.0107537451316,0.0137240019192,0.03568788992468859,-0.06711947834450971,1.3542239390499633
1765470657.7496865,8.120280265808105,0.116486423389,-0.162931535251,-0.0342117647157,0.0161737030186,-0.0437012018034,-0.0121156490064,0.00698163997071,-0.011303917659,0.0145207613767,0.03568788992468859,-0.06711947834450971,1.3542239390499633
1765470657.7699249,8.14051866531372,0.116821701812,-0.163819288171,-0.0334091096896,0.0163905244226,-0.0439700942237,-0.00931214105304,0.00781822987471,-0.0117543008886,0.0151399966128,0.03568788992468859,-0.06711947834450971,1.3542239390499633
1765470657.7915654,8.162159204483032,0.117142173848,-0.164676931454,-0.0327120978818,0.0164131081441,-0.0438418701697,-0.00703640953896,0.00632060296122,-0.00771776847922,0.0135000939396,0.035730463051427026,-0.06710854273928357,1.3542363227490322
1765470657.8106253,8.181219100952148,0.1174629203,-0.165531561225,-0.0321008574219,0.0164291567463,-0.043697373948,-0.00508965368287,0.00509564839481,-0.00441616594874,0.012133375192,0.035730463051427026,-0.06710854273928357,1.3542363227490322
1765470657.8302972,8.200891017913818,0.1177858092,-0.166388181533,-0.0315665277441,0.0164407774084,-0.0435409320548,-0.00342793960728,0.0040935237766,-0.00171515379197,0.0109931203302,0.035730463051427026,-0.06710854273928357,1.3542363227490322
1765470657.8505259,8.22111964225769,0.118110167576,-0.167244992717,-0.0311000851888,0.0164487126231,-0.0433746901238,-0.00201494837616,0.00327368169264,0.000494554856175,0.0100409465548,0.035730463051427026,-0.06710854273928357,1.3542363227490322
1765470657.8706176,8.241211414337158,0.118435653357,-0.168101080856,-0.0306935672477,0.0164536452684,-0.0432004887062,-0.000818464197607,0.00260294305321,0.00230238712193,0.00924511137413,0.035730463051427026,-0.06710854273928357,1.3542363227490322
1765470657.895092,8.265685796737671,0.118767859593,-0.168971052412,-0.0308904714442,0.0164569280109,-0.0430186501128,-0.00111447041741,0.00205272179161,0.00378539062218,0.00847362522591,0.035730463051427026,-0.06710854273928357,1.3542363227490322
1765470657.9114602,8.28205394744873,0.119096532057,-0.169828004929,-0.0310563201887,0.016457503768,-0.0428320036114,-0.00133053202249,0.00160283172165,0.00499797289596,0.00784964696212,0.035730463051427026,-0.06710854273928357,1.3542363227490322
1765470657.9315872,8.302181005477905,0.119424635873,-0.170679752806,-0.0311954701421,0.0164563317691,-0.0426413484338,-0.00147778125779,0.00123510020805,0.00598911438736,0.00734535307533,0.035730463051427026,-0.06710854273928357,1.3542363227490322
1765470657.9514716,8.322065353393555,0.119753370779,-0.171529415743,-0.0313117736903,0.0164538585759,-0.0424471217393,-0.00156700254265,0.00093437153148,0.00679966409,0.00693772364643,0.035730463051427026,-0.06710854273928357,1.3542363227490322
1765470657.97129,8.341883897781372,0.120082556435,-0.172376510751,-0.0314084550669,0.0164503109245,-0.0422499657489,-0.00160802996037,0.00068836291888,0.00746272758651,0.00660823259668,0.035730463051427026,-0.06710854273928357,1.3542363227490322
1765470657.9927075,8.363301277160645,0.120431675867,-0.173264969731,-0.0314868418972,0.0165307918997,-0.0422032424473,-0.00155096968745,0.0014163785865,0.006268160179,0.00701451571796,0.035978740405238865,-0.06707828673258674,1.3542500380286462
1765470658.0127583,8.383352041244507,0.12077001393,-0.174121770967,-0.0315494875093,0.0166133122953,-0.0421657735477,-0.00146353199169,0.00201040946436,0.00529344224735,0.00734866591848,0.035978740405238865,-0.06707828673258674,1.3542500380286462
1765470658.0329013,8.403495073318481,0.121109201534,-0.174976547746,-0.0297614072865,0.0166979095113,-0.0421316775819,0.00301643506949,0.00249562980335,0.00449726652174,0.00797085840705,0.035978740405238865,-0.06707828673258674,1.3542500380286462
1765470658.0529122,8.423506021499634,0.12144993169,-0.175830858597,-0.028221902743,0.016784302165,-0.0421002429189,0.00669629584013,0.00289233535903,0.00384633063083,0.00841575820531,0.035978740405238865,-0.06707828673258674,1.3542500380286462
1765470658.0730014,8.443595170974731,0.121791256588,-0.176682174113,-0.0268993264415,0.0168720106121,-0.0420712540775,0.00968830357231,0.00321669644678,0.00331410144823,0.00872476161746,0.035978740405238865,-0.06707828673258674,1.3542500380286462
1765470658.093912,8.464505672454834,0.122137919997,-0.177542165261,-0.0257617290458,0.0169616804653,-0.0420434309726,0.0120965957511,0.00348246557698,0.00287801311252,0.00893123866192,0.035978740405238865,-0.06707828673258674,1.3542500380286462
1765470658.1135888,8.484182596206665,0.122482331429,-0.178391859723,-0.0247911356893,0.0170515976036,-0.0420178737076,0.0139977037062,0.00369971940166,0.00252153130909,0.00905976904478,0.035978740405238865,-0.06707828673258674,1.3542500380286462
1765470658.1339223,8.504516124725342,0.122827817627,-0.17923949331,-0.0239641543666,0.0171421968937,-0.0419936447057,0.0154683637608,0.00387735098635,0.00223006381593,0.00913062271931,0.035978740405238865,-0.06707828673258674,1.3542500380286462
1765470658.1541953,8.524789094924927,0.123175091249,-0.180086760548,-0.0232613299356,0.0172334787621,-0.0419704230451,0.0165740763531,0.00402265250493,0.00199164524051,0.00915955132274,0.035978740405238865,-0.06707828673258674,1.3542500380286462
1765470658.1753194,8.545913219451904,0.123523885967,-0.18093295976,-0.0246839748102,0.0173252569032,-0.0419480669092,0.0125793683857,0.00414152512334,0.00179659263119,0.00877814179902,0.035978740405238865,-0.06707828673258674,1.3542500380286462
1765470658.1949518,8.565545558929443,0.123877025005,-0.181812951024,-0.0259341597968,0.0173122790085,-0.0419419440133,0.00885222759025,0.00304593070197,0.00145062362139,0.00411027821353,0.03595182167228305,-0.06708366298903734,1.3543228754844598
1765470658.2149792,8.585572957992554,0.12421785818,-0.182659389817,-0.0270238654262,0.0172922832724,-0.0419384210841,0.00567089790319,0.00215225242062,0.00116841609637,0.000348369212627,0.03595182167228305,-0.06708366298903734,1.3543228754844598
1765470658.2350993,8.605693101882935,0.124559654101,-0.183505439589,-0.0279665512013,0.0172691924013,-0.0419358743775,0.00296593382883,0.00142244293949,0.000937955390646,-0.00268454754422,0.03595182167228305,-0.06708366298903734,1.3543228754844598
1765470658.255122,8.625715732574463,0.124902121447,-0.184351237448,-0.0287820110018,0.0172435512521,-0.0419341313714,0.00067218787901,0.000825995932196,0.000749608155126,-0.005129503455,0.03595182167228305,-0.06708366298903734,1.3543228754844598
1765470658.2752664,8.645860195159912,0.125245326196,-0.185197632081,-0.0294872331093,0.0172158166602,-0.0419330388324,-0.00126662040723,0.000338226801331,0.000595579437995,-0.00709989245223,0.03595182167228305,-0.06708366298903734,1.3543228754844598
1765470658.2960966,8.666690349578857,0.125596002636,-0.186061612605,-0.0300990755772,0.0171863672332,-0.0419322799132,-0.00290584622018,-6.20106034006e-05,0.000469191665384,-0.00869183573494,0.03595182167228305,-0.06708366298903734,1.3543228754844598
1765470658.3160374,8.686631202697754,0.125938894559,-0.186906440409,-0.0302580278528,0.0171553784799,-0.0419322280314,-0.00340024405169,-0.000388820979772,0.000365990827463,-0.00990026373276,0.03595182167228305,-0.06708366298903734,1.3543228754844598
1765470658.3369076,8.707501411437988,0.126281903506,-0.187751744318,-0.0303959227449,0.0171232397693,-0.041932531944,-0.00382901647769,-0.0006559143753,0.000281647537853,-0.0108822261118,0.03595182167228305,-0.06708366298903734,1.3543228754844598
1765470658.3566136,8.72720742225647,0.126630955712,-0.18861237583,-0.030516944082,0.0170898605879,-0.0419330475319,-0.0042043347521,-0.000874896388123,0.000212496957434,-0.0116823661693,0.03595182167228305,-0.06708366298903734,1.3543228754844598
1765470658.376128,8.746721744537354,0.1270019467,-0.189463967756,-0.0306008015463,0.0173380228046,-0.0419964781908,-0.00409699293904,0.00204520194798,-0.000531421813567,-0.00699864728818,0.03598154088557265,-0.0670833508998471,1.3541981063873896
1765470658.3970544,8.767648220062256,0.127373350683,-0.190315095692,-0.0306701848229,0.0175963927206,-0.0420625091855,-0.00392955180213,0.00443144331556,-0.00113933618533,-0.00316807356884,0.03598154088557265,-0.0670833508998471,1.3541981063873896
1765470658.4171848,8.787778615951538,0.127746630264,-0.191167126771,-0.030726359186,0.0178632191117,-0.0421306946523,-0.00371335612716,0.00638260674855,-0.00163641091913,-3.33793913973e-05,0.03598154088557265,-0.0670833508998471,1.3541981063873896
1765470658.4375682,8.808161973953247,0.12812453619,-0.192024757842,-0.0307708195394,0.0181378564282,-0.0422008712371,-0.00345769244142,0.00797988595565,-0.0020433307718,0.00253479293791,0.03598154088557265,-0.0670833508998471,1.3541981063873896
1765470658.4579878,8.82858157157898,0.128503273851,-0.192877721955,-0.0308040218686,0.0184173003899,-0.0422722710037,-0.0031716627766,0.00928585558525,-0.00237603714329,0.00463609958075,0.03598154088557265,-0.0670833508998471,1.3541981063873896
1765470658.4777453,8.848339080810547,0.128885693172,-0.19373159237,-0.0333963960648,0.0187013693669,-0.0423448490206,-0.00896289837215,0.0103540047625,-0.00264815682275,0.00587103708784,0.03598154088557265,-0.0670833508998471,1.3541981063873896
1765470658.4981184,8.868712186813354,0.129277419941,-0.19459806144,-0.0356254699939,0.0189922219621,-0.0424191580459,-0.0135987490592,0.0112295985955,-0.00287122146413,0.0069747821829,0.03598154088557265,-0.0670833508998471,1.3541981063873896
1765470658.518638,8.88923168182373,0.129668847924,-0.195454790881,-0.0375281338186,0.0192835171603,-0.0424935771549,-0.0172373455026,0.0119453108912,-0.00305355498516,0.00795608074689,0.03598154088557265,-0.0670833508998471,1.3541981063873896
1765470658.5389931,8.909586906433105,0.130064976773,-0.196312507081,-0.0391489630276,0.0195772929318,-0.0425686281507,-0.0200264682095,0.0125305512636,-0.00320264972392,0.00882569248491,0.03598154088557265,-0.0670833508998471,1.3541981063873896
1765470658.5593357,8.929929494857788,0.130466212012,-0.19717162695,-0.0405250836382,0.0198731927149,-0.042644220283,-0.0220952393226,0.0130092562938,-0.00332460371887,0.009593944051,0.03598154088557265,-0.0670833508998471,1.3541981063873896
1765470658.5790365,8.94963026046753,0.130864042199,-0.19801998271,-0.0416893730615,0.0200829740712,-0.0425956385006,-0.0235640238144,0.0124331292607,-0.00205333710499,0.0101612963155,0.03608465931521836,-0.0672020779501942,1.3542950454510685
1765470658.599231,8.96982479095459,0.131276698767,-0.198889672261,-0.0426803888373,0.020296493738,-0.0425431120689,-0.0245153433744,0.0119600434,-0.00100943840607,0.0106678205038,0.03608465931521836,-0.0672020779501942,1.3542950454510685
1765470658.6202343,8.990828037261963,0.131684025632,-0.199738198387,-0.0412924044737,0.0205020514231,-0.0424859063532,-0.0198017907206,0.011573752099,-0.000157058277914,0.011532505118,0.03608465931521836,-0.0672020779501942,1.3542950454510685
1765470658.6403766,9.0109703540802,0.132096331559,-0.200587389138,-0.0400781645443,0.0207064028054,-0.0424257060164,-0.0157195906536,0.0112580511772,0.00053955899367,0.0121886726828,0.03608465931521836,-0.0672020779501942,1.3542950454510685
1765470658.6606424,9.031236171722412,0.132522627995,-0.201455457138,-0.0390167565527,0.0209146211758,-0.042362619542,-0.0121695169471,0.0109990630125,0.00111103540128,0.0126838877137,0.03608465931521836,-0.0672020779501942,1.3542950454510685
1765470658.6806445,9.051238298416138,0.132944057388,-0.202303969388,-0.0380840808551,0.0211168618535,-0.0422977920373,-0.0091137585527,0.010787621859,0.00157759583639,0.0130491017431,0.03608465931521836,-0.0672020779501942,1.3542950454510685
1765470658.7003894,9.070983171463013,0.133370187071,-0.203152490662,-0.0372699086414,0.0213185203019,-0.0422313046162,-0.00648250055488,0.0106148378318,0.00195885648297,0.0133136500172,0.03608465931521836,-0.0672020779501942,1.3542950454510685
1765470658.7237387,9.094332456588745,0.133800522461,-0.204000013515,-0.0365592658845,0.0215195112469,-0.0421634774298,-0.00422123686623,0.0104735795131,0.00227055333836,0.0135004342322,0.03608465931521836,-0.0672020779501942,1.3542950454510685
1765470658.7404542,9.111047983169556,0.134234866631,-0.20484614761,-0.0359393575274,0.021719880984,-0.0420945699682,-0.00228248071719,0.0103580641296,0.00252544651639,0.0136274942677,0.03608465931521836,-0.0672020779501942,1.3542950454510685
1765470658.7608273,9.131421089172363,0.134673676637,-0.205691770814,-0.0357659701821,0.0219199625579,-0.0420247240852,-0.00149559850318,0.010263565446,0.0027339648027,0.0136398359877,0.03608465931521836,-0.0672020779501942,1.3542950454510685
1765470658.7803092,9.15090298652649,0.13511614864,-0.206531109056,-0.0356177109995,0.0221162711668,-0.0419060195102,-0.000939672273356,0.0101493516727,0.00343382762698,0.0117730770137,0.036289602044667565,-0.06723225905548535,1.3543112907337178
1765470658.802013,9.172606706619263,0.135565790422,-0.207374795301,-0.0354858645675,0.0223135476228,-0.0417842802083,-0.000460018648173,0.0100558042169,0.00400705434727,0.0102385754665,0.036289602044667565,-0.06723225905548535,1.3543112907337178
1765470658.8218906,9.192484378814697,0.136016504167,-0.208211178279,-0.0353689473464,0.0225091079148,-0.0416609589118,-5.07912808241e-05,0.00997929662876,0.00447586660335,0.00897865690029,0.036289602044667565,-0.06723225905548535,1.3543112907337178
1765470658.841541,9.212134838104248,0.136471063151,-0.209045390752,-0.035265640734,0.0227043036423,-0.0415359982503,0.000298079899475,0.00991671437565,0.00485934918312,0.0079437154199,0.036289602044667565,-0.06723225905548535,1.3543112907337178
1765470658.8616884,9.232282161712646,0.136929474186,-0.209877345299,-0.0351746012024,0.0228992018254,-0.0414096993757,0.000594205324894,0.00986551563215,0.00517307752087,0.00709320753875,0.036289602044667565,-0.06723225905548535,1.3543112907337178
1765470658.881828,9.252421855926514,0.137391805232,-0.210707081399,-0.0350945796469,0.0230938834428,-0.04128229251,0.000844334518507,0.00982362404836,0.00542977477649,0.0063939596439,0.036289602044667565,-0.06723225905548535,1.3543112907337178
1765470658.9026704,9.273264169692993,0.137874980205,-0.211564430417,-0.0329961917182,0.0232955109225,-0.0411499295231,0.00587396275839,0.00978916058341,0.0056409550679,0.00619990590994,0.036289602044667565,-0.06723225905548535,1.3543112907337178
1765470658.9226894,9.293283224105835,0.138345429098,-0.2123896773,-0.031196123822,0.0234899201491,-0.0410207596613,0.00995015076658,0.00976103885993,0.00581327534294,0.00596604519367,0.036289602044667565,-0.06723225905548535,1.3543112907337178
1765470658.942794,9.313387870788574,0.138819842554,-0.213212599515,-0.0296541113438,0.0236842359529,-0.040890986045,0.0132171784713,0.00973806841068,0.00595403037649,0.00571077734975,0.036289602044667565,-0.06723225905548535,1.3543112907337178
1765470658.9631734,9.333767175674438,0.139298530003,-0.214033681897,-0.0283358035552,0.0238786055532,-0.0407606345855,0.0157949186728,0.00971929094025,0.00606909227419,0.00544742968639,0.036289602044667565,-0.06723225905548535,1.3543112907337178
1765470658.9825516,9.353145360946655,0.139769179687,-0.214853885691,-0.0272081715124,0.0239426818618,-0.0406246477997,0.0178469892042,0.00826664618894,0.00621724898275,0.0059371885857,0.03603669328727251,-0.06723416071895125,1.3542123542992215
1765470659.003634,9.37422776222229,0.140244916067,-0.215674361441,-0.0262479908471,0.0240019893507,-0.0404876864733,0.0194038103934,0.0070775656069,0.00633852451491,0.00629849940246,0.03603669328727251,-0.06723416071895125,1.3542123542992215
1765470659.0236351,9.3942289352417,0.140720311355,-0.216486737443,-0.0254370753616,0.0240559772597,-0.0403511454589,0.0205392322646,0.00610544009119,0.00643767258025,0.00656033553789,0.03603669328727251,-0.06723416071895125,1.3542123542992215
1765470659.0440562,9.414649963378906,0.141198540614,-0.217297039731,-0.0229182218151,0.0241065915797,-0.0402141677859,0.025677815472,0.00531029528454,0.00651877020393,0.00709241224281,0.03603669328727251,-0.06723416071895125,1.3542123542992215
1765470659.0638602,9.434453964233398,0.141679378302,-0.218105401128,-0.0207665532297,0.0241544438239,-0.0400767855233,0.0297014981897,0.00465969069154,0.00658512602492,0.00743900068702,0.03603669328727251,-0.06723416071895125,1.3542123542992215
1765470659.0844278,9.455021619796753,0.142162285193,-0.218911339325,-0.0189344012876,0.024199970008,-0.0399391222571,0.0327758301368,0.00412729044458,0.00663942606501,0.00764707475005,0.03603669328727251,-0.06723416071895125,1.3542123542992215
1765470659.1051228,9.475716590881348,0.142655291552,-0.219728370339,-0.0173684120778,0.0242448912725,-0.0397989514248,0.0350475773035,0.00369049697701,0.00668397507289,0.00775359009609,0.03603669328727251,-0.06723416071895125,1.3542123542992215
1765470659.124788,9.495381832122803,0.143140971414,-0.220528096262,-0.0160569333931,0.0242867589284,-0.0396610496875,0.0366326906204,0.00333360227245,0.00672037512506,0.00778618625439,0.03603669328727251,-0.06723416071895125,1.3542123542992215
1765470659.1449556,9.515549421310425,0.143627927246,-0.221324948162,-0.014955246338,0.024327345918,-0.0395230442669,0.0376443079857,0.00304183817637,0.00675013244054,0.00776724763776,0.03603669328727251,-0.06723416071895125,1.3542123542992215
1765470659.1651611,9.535754919052124,0.144115862209,-0.222118633462,-0.0140350457235,0.0243668610725,-0.0393850069617,0.0381773409771,0.0028032461547,0.00677446668234,0.00771376003268,0.03603669328727251,-0.06723416071895125,1.3542123542992215
1765470659.1849568,9.555550575256348,0.144617159342,-0.222923344579,-0.0176704009696,0.0245196892709,-0.0393719690906,0.0279160238886,0.00386306296591,0.00541624253934,0.00755657601578,0.03592035475952808,-0.06723818875009999,1.3540668125456485
1765470659.2058861,9.5764799118042,0.145133006166,-0.223746578512,-0.0208255482645,0.0246786977112,-0.0393613768135,0.0192555301542,0.00473362873041,0.00430055591606,0.00755477874097,0.03592035475952808,-0.06723818875009999,1.3540668125456485
1765470659.225954,9.596547842025757,0.145637133931,-0.224546192753,-0.0235639022407,0.0248385928932,-0.0393576651552,0.0120318458933,0.00544434522998,0.0033897265177,0.0076680327631,0.03592035475952808,-0.06723818875009999,1.3540668125456485
1765470659.2458918,9.616485595703125,0.146143417668,-0.225344368057,-0.0259264658217,0.0250009748258,-0.039357145373,0.00604640198452,0.00602505666718,0.00264550705847,0.00785894741494,0.03592035475952808,-0.06723818875009999,1.3540668125456485
1765470659.2661045,9.636698246002197,0.1466523108,-0.226141745129,-0.0279619932951,0.0251654537815,-0.0393592314963,0.00112452656157,0.00649984342862,0.00203703695747,0.00809945398654,0.03592035475952808,-0.06723818875009999,1.3540668125456485
1765470659.2860606,9.656654357910156,0.147163743798,-0.226938155916,-0.0297125986339,0.0253316017579,-0.0393634862386,-0.00288415383928,0.00688815522922,0.0015393901406,0.00836860638828,0.03592035475952808,-0.06723818875009999,1.3540668125456485
1765470659.3069465,9.677540302276611,0.147691688099,-0.227755130282,-0.0312220619999,0.0255029614229,-0.0393688340847,-0.00611822131971,0.00720708189553,0.00113066488407,0.00865094778759,0.03592035475952808,-0.06723818875009999,1.3540668125456485
1765470659.326925,9.697518825531006,0.148208773831,-0.228550244469,-0.0295675435884,0.0256716856473,-0.0393764349466,-0.00169143590614,0.00746745002914,0.000796986194143,0.00949166889158,0.03592035475952808,-0.06723818875009999,1.3540668125456485
1765470659.3472579,9.717851638793945,0.148744062684,-0.229368171916,-0.0281335967002,0.0258457938117,-0.0393848404962,0.00201277812362,0.00768111238625,0.000523163993165,0.0101231484862,0.03592035475952808,-0.06723818875009999,1.3540668125456485
1765470659.36779,9.738383769989014,0.149271788719,-0.230169434276,-0.0268973866046,0.026017567207,-0.0393945818123,0.0050675754364,0.00785559386847,0.000299554630547,0.0105871066138,0.03592035475952808,-0.06723818875009999,1.3540668125456485
1765470659.3882732,9.758867025375366,0.149792253258,-0.230960350586,-0.0258418287287,0.0261248954129,-0.0393641724389,0.0074342748558,0.00729687754316,0.000567175005926,0.00930661549857,0.03589541259144381,-0.06724966530992255,1.3539534950412657
1765470659.4132414,9.783835172653198,0.150395948046,-0.231871298748,-0.0249009354622,0.0262516657011,-0.0393306571412,0.00937633779131,0.00683027409043,0.000790674097533,0.00820109107819,0.03589541259144381,-0.06724966530992255,1.3539534950412657
1765470659.4319887,9.802582502365112,0.150922283895,-0.232661188898,-0.0241239441852,0.0263547150442,-0.0392982427814,0.0108566975595,0.00645356863739,0.000971112810676,0.00727393259607,0.03589541259144381,-0.06724966530992255,1.3539534950412657
1765470659.454204,9.824797868728638,0.151454900126,-0.233456086776,-0.0234646853004,0.026457501395,-0.0392651455446,0.0119789357238,0.00614775388696,0.00111759547925,0.00649273171781,0.03589541259144381,-0.06724966530992255,1.3539534950412657
1765470659.4717858,9.842379570007324,0.15198655448,-0.234245353754,-0.0227236425358,0.026558501367,-0.0392317292142,0.0132391011804,0.00589911127051,0.00123669318114,0.00586905692899,0.03589541259144381,-0.06724966530992255,1.3539534950412657
1765470659.4924636,9.863057374954224,0.152520632486,-0.235034147317,-0.0220968517127,0.0266587214759,-0.0391979373989,0.0141647129146,0.00569650849005,0.00133373819254,0.00533432073633,0.03589541259144381,-0.06724966530992255,1.3539534950412657
1765470659.5127525,9.883346319198608,0.153065635461,-0.235834994199,-0.0215639243891,0.0267600824507,-0.0391633864677,0.0148111898108,0.00553078894689,0.00141311644648,0.00487461276291,0.03589541259144381,-0.06724966530992255,1.3539534950412657
1765470659.5327933,9.903387069702148,0.15360411383,-0.236622368565,-0.0211205650469,0.0268590337651,-0.0391290188722,0.0152210720825,0.00539560857662,0.00147786669593,0.00448097046735,0.03589541259144381,-0.06724966530992255,1.3539534950412657
1765470659.5527325,9.923326253890991,0.154144896888,-0.23740930726,-0.0207502057834,0.0269575615375,-0.0390944319386,0.0154357022673,0.00528521288631,0.00153074529414,0.00414401473014,0.03589541259144381,-0.06724966530992255,1.3539534950412657
1765470659.5745308,9.945124626159668,0.154687964749,-0.238195824656,-0.020442702852,0.0270557447383,-0.039059659619,0.0154886568524,0.00519498835749,0.00157396207728,0.00385582209076,0.03589541259144381,-0.06724966530992255,1.3539534950412657
1765470659.593147,9.963740825653076,0.155232309418,-0.238993935407,-0.020178110595,0.0271483317615,-0.0391495033184,0.0156543301673,0.00506392243945,0.000242719627369,0.00666069091067,0.035792231743960054,-0.06719373060465247,1.3537008942118718
1765470659.6138442,9.984437942504883,0.155799862552,-0.239822317359,-0.021427102244,0.0272443431665,-0.0392443051219,0.0122155418337,0.00495611162762,-0.000852319658309,0.00867744043712,0.035792231743960054,-0.06719373060465247,1.3537008942118718
1765470659.634271,10.004864692687988,0.156349749738,-0.240622574558,-0.0225157413369,0.0273363153163,-0.0393430060038,0.00935726653973,0.00486815701954,-0.00174567858547,0.0103690361876,0.035792231743960054,-0.06719373060465247,1.3537008942118718
1765470659.654099,10.02469277381897,0.156900479938,-0.24142183947,-0.0234549534095,0.0274277837019,-0.0394446877534,0.00700173241803,0.00479635206071,-0.0024750047958,0.0117897105051,0.035792231743960054,-0.06719373060465247,1.3537008942118718
1765470659.67424,10.044833898544312,0.157453139561,-0.242222032364,-0.0242637305163,0.0275190030385,-0.0395488624902,0.00507730325244,0.004737682754,-0.00307091159421,0.0129844428449,0.035792231743960054,-0.06719373060465247,1.3537008942118718
1765470659.694595,10.065188884735107,0.158013068714,-0.243031109599,-0.0249592174244,0.0276109304472,-0.0396557558223,0.00352162992765,0.00468965078778,-0.00355877444479,0.0139913997849,0.035792231743960054,-0.06719373060465247,1.3537008942118718
1765470659.7150745,10.085668325424194,0.158579871427,-0.243848720471,-0.0255567556491,0.0277035081979,-0.0397651607881,0.00228145846434,0.00465029227094,-0.00395854067817,0.0148411910519,0.035792231743960054,-0.06719373060465247,1.3537008942118718
1765470659.7360437,10.106637477874756,0.159138212605,-0.244653045488,-0.0260678750593,0.0277941942784,-0.0398745931647,0.00130934637681,0.00461816169367,-0.00428489240288,0.0155564629742,0.035792231743960054,-0.06719373060465247,1.3537008942118718
1765470659.7566078,10.127201557159424,0.159699158617,-0.245460135246,-0.0265030058253,0.0278848903546,-0.0399852665729,0.000569021137551,0.00459190421147,-0.00455159083568,0.0161591968144,0.035792231743960054,-0.06719373060465247,1.3537008942118718
1765470659.775286,10.145879745483398,0.16026980009,-0.246283330748,-0.0272510023692,0.0279458822614,-0.0400838170911,-0.00104809337465,0.00422552996206,-0.00460661013337,0.0140951420289,0.03568089912682713,-0.0672078453584299,1.3535874435494344
1765470659.7963288,10.166922569274902,0.160830149461,-0.247091141236,-0.0278891794037,0.0280036481077,-0.0401805915628,-0.0023467796957,0.00392645336386,-0.00465152318175,0.0124368904745,0.03568089912682713,-0.0672078453584299,1.3535874435494344
1765470659.8162398,10.186833620071411,0.161392441168,-0.247901311998,-0.0284326191521,0.028060430315,-0.0402775762296,-0.00336924426638,0.00368207406949,-0.00468822220513,0.0111044756312,0.03568089912682713,-0.0672078453584299,1.3535874435494344
1765470659.8364394,10.207033157348633,0.16195612491,-0.248713217052,-0.0288942731726,0.0281163454733,-0.0403746698601,-0.00415758134227,0.0034822852652,-0.00471822496792,0.0100342821729,0.03568089912682713,-0.0672078453584299,1.3535874435494344
1765470659.8574502,10.228044033050537,0.162521330939,-0.249527176609,-0.0292853437927,0.0281715712377,-0.0404718857625,-0.00474770198948,0.00331888389347,-0.0047427633429,0.00917514482693,0.03568089912682713,-0.0672078453584299,1.3535874435494344
1765470659.8766518,10.24724555015564,0.163087782727,-0.250342902152,-0.0296154279496,0.0282262062814,-0.0405691703813,-0.00517059625187,0.00318521414203,-0.00476283684931,0.00848593637599,0.03568089912682713,-0.0672078453584299,1.3535874435494344
1765470659.901967,10.272560834884644,0.163655605772,-0.25116066275,-0.0298928971303,0.0282803743927,-0.040666538866,-0.00545286467998,0.00307584466683,-0.0047792611251,0.00793344320798,0.03568089912682713,-0.0672078453584299,1.3535874435494344
1765470659.9182093,10.288803100585938,0.164254049196,-0.252022609484,-0.0284671468524,0.0283372773333,-0.0407689286306,-0.00165952492587,0.00298566496213,-0.00479280362714,0.0078036097117,0.03568089912682713,-0.0672078453584299,1.3535874435494344
1765470659.9381645,10.30875825881958,0.16482476961,-0.252844883596,-0.0272346259191,0.0283907262404,-0.0408664738474,0.00147123808675,0.00291216857119,-0.00480384075603,0.00764555696873,0.03568089912682713,-0.0672078453584299,1.3535874435494344
1765470659.9588985,10.329492330551147,0.165409921233,-0.253688180713,-0.0261699315055,0.0284452599026,-0.0409662966169,0.00405392572926,0.00285198115907,-0.00481287924372,0.00747211537366,0.03568089912682713,-0.0672078453584299,1.3535874435494344
1765470659.9783256,10.34891939163208,0.165974477555,-0.254540578317,-0.0252514396985,0.028343757344,-0.0412215670626,0.00622609540596,0.00110000628852,-0.0065368344009,0.00818512119431,0.03587965832912031,-0.06720863182318931,1.353570665634567
1765470659.9992654,10.369859218597412,0.166532387299,-0.25538513052,-0.0244656264419,0.0282356397784,-0.0414814157059,0.00798475232045,-0.000328762311821,-0.00794275239572,0.0087335430813,0.03587965832912031,-0.06720863182318931,1.353570665634567
1765470660.0203109,10.390904664993286,0.167099112539,-0.256245963014,-0.0237901562388,0.0281223034739,-0.041748799313,0.00939768180899,-0.00149802027255,-0.00909331016077,0.00915435577446,0.03587965832912031,-0.06720863182318931,1.353570665634567
1765470660.0403237,10.410917520523071,0.167660640383,-0.257103685282,-0.0232145961965,0.0280047920639,-0.0420190414519,0.0105100181473,-0.00245328449145,-0.0100332966322,0.00947412848799,0.03587965832912031,-0.06720863182318931,1.353570665634567
1765470660.0602982,10.430891990661621,0.168216383104,-0.257958201074,-0.0236468162201,0.0278843277181,-0.0422908741027,0.00918195118666,-0.00323299477929,-0.0108005368446,0.00954054340839,0.03587965832912031,-0.06720863182318931,1.353570665634567
1765470660.080393,10.450986862182617,0.168771142263,-0.258817468679,-0.0240224252906,0.0277611697159,-0.0425654336257,0.00805178869555,-0.00387005014108,-0.0114274036421,0.00961053415212,0.03587965832912031,-0.06720863182318931,1.353570665634567
1765470660.1022096,10.472803354263306,0.169331084831,-0.259691738416,-0.0243480398168,0.0276347820514,-0.0428450222434,0.00709227360011,-0.0043917838557,-0.0119407931565,0.00968125315426,0.03587965832912031,-0.06720863182318931,1.353570665634567
1765470660.1221273,10.49272108078003,0.169898743053,-0.260585878301,-0.0246305059769,0.0275047824826,-0.0431308026596,0.00627957504734,-0.00481989932131,-0.0123620616788,0.00975073632779,0.03587965832912031,-0.06720863182318931,1.353570665634567
1765470660.142254,10.512847900390625,0.170449686784,-0.261462113907,-0.0248780477556,0.0273756578731,-0.0434116475426,0.005593249088,-0.00516918926397,-0.0127057653518,0.00981791644435,0.03587965832912031,-0.06720863182318931,1.353570665634567
1765470660.1623888,10.532982587814331,0.170999532088,-0.262345089365,-0.025091892308,0.0272451248045,-0.0436941544776,0.00502005382348,-0.00545451746297,-0.0129865302351,0.00988176916779,0.03587965832912031,-0.06720863182318931,1.353570665634567
1765470660.1815798,10.552173614501953,0.171557435352,-0.263213991055,-0.0252790837401,0.027227065347,-0.0438049993079,0.00449182393677,-0.00444535070023,-0.0113281389223,0.00929506715402,0.03593696622682745,-0.06742461834878394,1.353539772965922
1765470660.202275,10.572868824005127,0.172113450118,-0.264087549267,-0.0263600688077,0.0272125575078,-0.0439100038302,0.00186317689903,-0.00362042322308,-0.00997251306119,0.00864832671358,0.03593696622682745,-0.06742461834878394,1.353539772965922
1765470660.2226114,10.593205213546753,0.172676992803,-0.264979878845,-0.0272912952742,0.0271999152464,-0.0440132806136,-0.000287128365334,-0.00294421509384,-0.00886128176766,0.0081563869461,0.03593696622682745,-0.06742461834878394,1.353539772965922
1765470660.2433293,10.613923072814941,0.173228835279,-0.265858980408,-0.0280895029439,0.0271909729525,-0.0441089300283,-0.00202373632984,-0.00239209756318,-0.00795397194505,0.00778815653241,0.03593696622682745,-0.06742461834878394,1.353539772965922
1765470660.2624636,10.633057355880737,0.173780272679,-0.266742326084,-0.0287720767596,0.0271838897362,-0.0442016126116,-0.0034051641006,-0.00194085950856,-0.00721244012156,0.0075156194867,0.03593696622682745,-0.06742461834878394,1.353539772965922
1765470660.2829304,10.653524160385132,0.1743303024,-0.267627666458,-0.0293542059014,0.0271784285914,-0.0442915413588,-0.0044843225642,-0.00157196058099,-0.00660621843515,0.00731698786818,0.03593696622682745,-0.06742461834878394,1.353539772965922
1765470660.3030922,10.673686027526855,0.17487987014,-0.268516031895,-0.0298493413244,0.0271742514111,-0.0443793889065,-0.00530665755687,-0.00127024131816,-0.00611039492723,0.00717503343433,0.03593696622682745,-0.06742461834878394,1.353539772965922
1765470660.3239744,10.694568157196045,0.17543977,-0.269424680092,-0.0302716741132,0.0271707008231,-0.044467815255,-0.0059099571258,-0.00102268246809,-0.00570357470533,0.00707585742011,0.03593696622682745,-0.06742461834878394,1.353539772965922
1765470660.3439345,10.714528322219849,0.175988641525,-0.270318354357,-0.0309936783775,0.0271685108041,-0.0445524365716,-0.00720426875008,-0.000820441236816,-0.00537122616451,0.00694008738351,0.03593696622682745,-0.06742461834878394,1.353539772965922
