timestamp_abs,timestamp_rel,roll,pitch,yaw,acc_x,acc_y,acc_z,gyr_x,gyr_y,gyr_z
1765470127.3701086,0.03221440315246582,0.04394772565746138,0.07210401292708093,1.3814048269255845,0.0300904735923,0.00284463446587,0.00986957550049,-0.00523775815964,0.0019319356652,0.00486001372337
1765470127.5682461,0.23035192489624023,0.04374245419406511,0.07206517238705781,1.381568744490679,0.00687160063535,0.0135814715177,0.00396728515625,-0.0082403421402,0.00161305081565,0.00566765619442
1765470127.7673044,0.4294102191925049,0.04360971641967068,0.07204643039088637,1.3818085621468406,0.0170698855072,0.00786708854139,-5.72204589844e-06,-0.00512003898621,-0.000675022660289,0.00614300370216
1765470127.9678736,0.6299793720245361,0.04377228992065241,0.07198500291586803,1.3821027082892399,0.0157331824303,0.00884586200118,-0.000757217407227,-0.0039353966713,-0.00112354755402,0.00436380552128
1765470128.165276,0.8273818492889404,0.04381233720554448,0.07197118776771323,1.38230670642874,0.0156028661877,0.00238914228976,0.00461483001709,-0.00330507778563,-0.00237822532654,0.00530853820965
1765470128.3660421,1.0281479358673096,0.04344990178713071,0.07205698316670582,1.3823747501945913,0.00576130114496,0.0194092225283,0.0145616531372,-0.00254809879698,0.00647380948067,0.00705793499947
1765470128.5664911,1.2285969257354736,0.04365946343659552,0.07217810706203398,1.3825948604586864,0.00355928204954,0.0362948141992,-0.000677108764648,-0.0267222542316,-0.00780522823334,0.0116743156686
1765470128.7670653,1.429171085357666,0.044069419635710386,0.07213213424371649,1.3828438660206088,0.0120026292279,0.0230747237802,0.004150390625,-0.00383108877577,-0.000631809176411,0.0059016039595
1765470128.9653707,1.627476453781128,0.04388706800244562,0.07207789730364135,1.3828349444309571,0.021383119747,0.0106535796076,-0.00375747680664,-0.011445581913,-0.000287592440145,0.00518634915352
1765470129.164962,1.8270678520202637,0.043644200194598005,0.07216036375127133,1.383029887822751,0.0370671749115,0.0248552598059,0.00887298583984,-0.00366270565428,-0.00266432762146,0.00585690140724
1765470129.3652835,2.0273892879486084,0.043680369251152644,0.07219658274209641,1.3832599849409337,0.00918449368328,-0.00390174682252,-0.00222492218018,-0.00330358743668,-0.00408440874889,0.00815317034721
1765470129.565275,2.2273807525634766,0.04428017138528733,0.07200530951917987,1.3835579926669137,0.0120592070743,0.018336687237,0.00365447998047,-0.00521391630173,-0.000379979610443,0.00686422130093
1765470129.7658648,2.4279706478118896,0.044145906454455305,0.07217551880234957,1.3835947442899568,0.0213373452425,0.0287262313068,0.0034704208374,0.01105889678,0.0114835808054,-0.000822544214316
1765470129.9650733,2.6271791458129883,0.043671227118473106,0.07215939835537617,1.3836771691256946,0.0227999873459,0.0148814721033,-0.00384902954102,-0.0047996644862,0.0065453350544,0.00569149851799
1765470130.165407,2.827512741088867,0.04425162562735305,0.07213925819963245,1.3840568027390854,0.018135946244,0.00621166825294,0.000561714172363,-0.00131428253371,0.00296905636787,0.00674650119618
1765470130.3668373,3.0289430618286133,0.04455964517455593,0.07208135941305845,1.3842785108998346,0.0276810266078,0.00787729769945,0.0029182434082,-0.00563859986141,0.00216290331446,0.00343546271324
1765470130.565877,3.227982759475708,0.04411559635229884,0.07209375975688413,1.3843164609453682,0.0143243698403,0.0153820347041,-0.00675296783447,-0.00914335343987,0.00129118561745,0.00642165588215
1765470130.7662468,3.4283525943756104,0.04404948753942683,0.07202646500508919,1.3845622707139824,0.0239848624915,0.00990578532219,0.0257720947266,-0.0043630595319,-2.68220901489e-05,0.00575408246368
1765470130.9665782,3.6286840438842773,0.0445564077693558,0.07195563324247149,1.384829785245481,-0.0253046639264,0.0141930300742,-0.00345516204834,-0.00336170243099,-0.000128150000819,0.00429525971413
1765470131.1666903,3.828796148300171,0.044634034753942405,0.07199012950096642,1.3849064842848753,0.0161979813129,0.011680746451,0.0447950363159,-0.00354349636473,0.00207796716131,0.005853921175
1765470131.3659008,4.028006553649902,0.044303216051094926,0.07200962883357284,1.3851192708559725,0.0235603414476,0.00706877047196,0.0116872787476,-0.00794231984764,0.0030092895031,0.00477358745411
1765470131.5663347,4.228440523147583,0.044109425308710426,0.071860217174041,1.3853491016580464,0.0138024333864,0.0126439435408,-0.000232696533203,-0.00323653244413,-0.00293403863907,0.0051237642765
1765470131.7655122,4.427618026733398,0.04472244754094384,0.0717668650554553,1.3855906503689166,0.0221486203372,0.023845853284,0.0170907974243,-0.00243186973967,0.00254884362221,0.00568851875141
1765470131.96625,4.6283557415008545,0.04478515666223679,0.07180314230292924,1.3857786695418761,0.0166229680181,0.00299952807836,-0.00344181060791,-0.00918060634285,0.00360384606756,0.00516101717949
1765470132.165713,4.827818870544434,0.044343671132528906,0.07181074895679278,1.3858966475781667,-0.00502087641507,0.0130985081196,0.00240707397461,-0.00351965497248,0.00316277192906,0.00434294389561
1765470132.3657794,5.02788519859314,0.044497023438236236,0.07178619794049361,1.3860955857115955,0.0356340780854,0.0199598874897,0.00296020507812,-0.00240951799788,-0.000180304050446,0.00421330332756
1765470132.565786,5.227891683578491,0.0447858058077525,0.07167874771288732,1.3863146307112546,0.0247847754508,0.0142621863633,0.00436973571777,-0.0053197145462,-0.000520050467458,0.00486746430397
1765470132.7651682,5.427273988723755,0.04468808444050341,0.07170198379339826,1.3865054462033588,0.0138828530908,0.0106476861984,0.00205898284912,-0.0075727715157,-0.00217556976713,0.00739172194153
1765470132.972774,5.63487982749939,0.04451857839830906,0.07170435567124411,1.386676687461451,0.021883636713,0.0119436504319,0.000899314880371,-0.00479221343994,-0.000175833716639,0.00316128181294
1765470133.165838,5.827943801879883,0.04435562206792064,0.07160718358096985,1.3868762913851524,0.0271854922175,0.00343433627859,-0.0166625976562,-0.00898241903633,8.27014300739e-05,0.00539943482727
1765470133.365661,6.027766704559326,0.04429786892296875,0.0715635826404982,1.3871479338163404,0.0138579402119,0.0256889443845,-0.000622749328613,0.000978261232376,0.00239089154638,0.00768080353737
1765470133.5658464,6.227952241897583,0.044307984773921845,0.07160598515847931,1.3874126520286942,0.0163050591946,0.00976660847664,-0.00454425811768,-0.00609904527664,0.00296458601952,0.00505223916844
1765470133.7656515,6.427757263183594,0.0440766143318428,0.07157426025199373,1.3875223742656055,0.00523200724274,0.018549259752,-0.000947952270508,-0.00438541220501,-0.000716745853424,0.00554546667263
1765470133.9661214,6.628227233886719,0.04407657688113998,0.07157892910627978,1.3876271696545002,0.0151724787429,0.00895070564002,-0.0156240463257,-0.000748038291931,-0.000162422671565,0.00688508199528
1765470134.1662683,6.828374147415161,0.044146763659431175,0.07146352268491687,1.387892686815181,0.0143945449963,0.0117278508842,0.0129108428955,-0.00471174763516,-0.000491738319397,0.0070847584866
1765470134.3656466,7.02775239944458,0.04441772365558992,0.071522345255494,1.3880428891006615,0.00974608119577,0.00969144701958,0.00178241729736,0.00426247762516,0.00378415011801,0.000833719968796
1765470134.566343,7.228448867797852,0.044548705408140585,0.07181246336674452,1.3880772438787237,0.00463721808046,-0.00103422789834,0.00307464599609,-0.00845342967659,0.00125840306282,0.00190809380729
1765470134.7660441,7.428149938583374,0.04453858539599829,0.0719359258504049,1.3882146629909717,0.0377196371555,0.0108833219856,0.0156421661377,-0.00621825456619,0.00167563545983,0.00486150430515
1765470134.9658084,7.627914190292358,0.044847204154446436,0.07181431925712917,1.3883855047749003,0.0191075727344,0.0121413180605,0.000759124755859,-0.00411868141964,-9.23871994019e-05,0.005433708895
1765470135.1658063,7.827912092208862,0.044839922073340754,0.07172315592406439,1.3886594108930148,0.00768369063735,0.0177099741995,0.0133228302002,-0.00568032311276,-0.000458955793874,0.0098280608654
1765470135.3659475,8.028053283691406,0.044530021668618,0.07165784189833019,1.3887642062819094,0.00549308024347,0.00303849810734,0.0171766281128,-0.00985711999238,0.0076152398251,0.00342950271443
1765470135.5648136,8.226919412612915,0.044654986341580764,0.07179277261943474,1.3888872443242712,0.0107573810965,-0.0110997175798,0.010085105896,-0.00299364351667,0.00248178793117,0.00567063689232
1765470135.7657673,8.427873134613037,0.04531434757678156,0.07177066838238708,1.3891671425548384,0.0198233649135,-0.00369199831039,-0.00745296478271,-0.00718981074169,0.000781565904617,0.00812187884003
1765470135.9659739,8.628079652786255,0.044582157208145505,0.07145556649116026,1.3891134798588733,0.00825140159577,-0.0033930526115,-0.00344371795654,-0.0114858150482,0.00213757157326,0.00494346069172
1765470136.165749,8.827854871749878,0.04451971024177235,0.07145075615644131,1.3894272002352848,0.0164810568094,0.0301111061126,-0.00189113616943,-0.00319629930891,0.000620633247308,0.00633820937946
1765470136.3662896,9.028395414352417,0.04509581856458374,0.07149536410470014,1.3897359937636795,0.0360026247799,0.0243583992124,-0.00259304046631,-0.00464469194412,0.00160858046729,0.00594779895619
1765470136.5661466,9.228252410888672,0.04498439024009914,0.07151557916184952,1.3898128259611282,0.0305466130376,0.00821759738028,0.0111865997314,-0.00271052122116,0.00576749490574,0.0048540532589
1765470136.765079,9.427184820175171,0.04472481941878968,0.07143244692394701,1.3900810062828992,0.00863927416503,0.00556781003252,-0.0212059020996,-0.00719129946083,-0.00159293389879,0.00647678924724
1765470136.966426,9.628531694412231,0.04457778795948209,0.07140268609876538,1.3902643649239512,0.00785007141531,0.0150901181623,0.0172576904297,-0.00527203083038,-0.00166893017013,0.006153434515
1765470137.1662977,9.82840347290039,0.04491309658547988,0.07139026078780449,1.390409906677524,-0.00989162363112,0.0191500373185,-0.0128288269043,-0.000616908131633,-0.000534951686859,0.00640675425529
1765470137.3652427,10.027348518371582,0.04537388587190164,0.07134185783499229,1.3906811496345486,0.0337088257074,0.0156550817192,0.0132427215576,-0.0044047832489,0.00241920375265,0.00504031777382
1765470137.5658,10.227905750274658,0.04410587581432005,0.07062350342045705,1.3906671680388256,0.0425326861441,0.0378186255693,0.0695152282715,-0.0206723809242,-0.0191688537598,0.00532344030216
1765470137.7656517,10.427757501602173,0.05121077764492034,0.06813505402026541,1.392903424406165,0.0237388312817,0.125420644879,0.280624389648,0.0753037631512,-0.0143826035783,0.0213585793972
1765470137.9660766,10.628182411193848,0.054541921954229494,0.05935875228953139,1.3976576995841745,-0.0227140970528,0.0689858794212,-0.288159370422,-0.0461116470397,-0.0285536050797,0.0265017151833
1765470138.1654181,10.827523946762085,0.04309611748107049,0.057599114372342775,1.4015845306114965,0.066439948976,0.0531029962003,0.042444229126,-0.0453487075865,0.0427715480328,0.0236473996192
1765470138.368526,11.03063178062439,0.04141805967821156,0.06604593314196355,1.4072633221619268,-0.00520928297192,-0.0691545531154,0.189352035522,0.00116154563148,-0.0418767370284,0.0396691262722
1765470138.565674,11.227779865264893,0.0508637594325046,0.041363377490891674,1.417116485563002,0.0685748383403,-0.0281394366175,0.0633525848389,0.091370202601,-0.177519023418,0.0842623487115
1765470138.7659924,11.428098201751709,0.07266326843361917,0.004859913727866382,1.434847146310477,-0.0360065959394,0.040909614414,-0.13930606842,0.0632651001215,-0.160044416785,0.1189641729
1765470138.965497,11.627602815628052,0.06730589545962605,-0.014546355442472831,1.4577820233021306,-0.0182306859642,0.0406215414405,-0.0685863494873,-0.0861868262291,-0.00124573719222,0.131892412901
1765470139.1657774,11.827883243560791,0.04974250203455399,-0.014068170304586894,1.4867231275002397,0.00401028059423,-0.0814202055335,-0.00563049316406,-0.0923186689615,-0.0326722860336,0.169312253594
1765470139.3656409,12.027746677398682,0.04155486293445757,-0.018792186355007623,1.5198314130140502,-0.0477414242923,-0.00849445350468,0.136476516724,-0.0962615087628,0.0096507370472,0.0854753032327
1765470139.5657918,12.227897644042969,0.02198778408721016,-0.017975093162463086,1.5136034776468454,0.155182480812,-0.0746769681573,0.0307064056396,0.0609345808625,-0.0242963451892,-0.0135779408738
1765470139.7660708,12.428176641464233,0.03902111066741017,-0.015627794420937556,1.501054396274283,0.0397748015821,-0.0802393555641,0.0815992355347,0.0744231119752,0.0408791005611,-0.0986039862037
1765470139.9653356,12.62744140625,0.056272161069697166,-0.021959654448196194,1.484045319024165,-0.0969490781426,-0.136533230543,-0.00369739532471,0.0493712723255,-0.128453969955,-0.0667393282056
1765470140.1660862,12.828191995620728,0.05209755619245708,-0.06895579449514659,1.469258383387609,-0.0236324965954,-0.0481847450137,-0.105310440063,-0.0874146819115,-0.296196371317,-0.0462874770164
1765470140.3657858,13.027891635894775,0.0411272300036073,-0.09864678243838396,1.4574210318163703,0.0161529984325,0.0467092245817,-0.1578540802,-0.0429391860962,0.012170526199,-0.052599620074
1765470140.5659153,13.228021144866943,0.0330054500450307,-0.10924156130164053,1.443732117497254,0.0590577721596,0.73054420948,0.135140419006,-0.0500157549977,0.062737621367,-0.0759467482567
1765470140.7668405,13.428946256637573,0.034556202506000035,-0.03508869116298837,1.4292786096291759,-0.017975833267,-0.188177242875,-0.0291423797607,0.0397436358035,0.364301353693,-0.0799640864134
1765470140.9657092,13.627815008163452,0.04543135605598771,0.009889728810901414,1.4157171275682199,-0.019165430218,-0.172724127769,0.237952232361,0.0494636632502,0.129028409719,-0.0631764605641
1765470141.169323,13.83142876625061,0.049851350421732575,-0.002496461509928164,1.4037625969090177,0.028727132827,0.128406628966,0.175608634949,-0.0144228357822,-0.0894457325339,-0.047668825835
1765470141.367638,14.029743909835815,0.042272888615045766,-0.0038787729330648658,1.392458942820231,-0.0451582074165,-0.086868442595,0.0231895446777,-0.0718444660306,-0.0741809606552,-0.0402584709227
1765470141.5650284,14.227134227752686,0.032794415334587934,-0.05052780998336952,1.3833984693176178,0.119129210711,0.103925563395,-0.0439338684082,0.00293925451115,-0.33392906189,-0.0316947735846
1765470141.7672827,14.429388523101807,0.04730325453550158,-0.06646681662392614,1.3738285330984725,-0.0933302417397,-0.0326501652598,-0.129892349243,0.0521786548197,0.030256062746,-0.0436753071845
1765470141.966205,14.628310680389404,0.04675237550282948,-0.058642807203544825,1.3643597970007504,0.0251438058913,-0.0032034702599,-0.0604906082153,-0.0506863109767,0.0705041140318,-0.047193467617
1765470142.167272,14.829377889633179,0.04021404871057594,-0.03980782093698718,1.354064016226504,-0.0442402623594,-0.00479947775602,-0.00731945037842,-0.0347867645323,0.0927053391933,-0.0499948896468
1765470142.367223,15.0293288230896,0.03404072687106918,-0.03287093752344108,1.3449289742133688,0.0281230602413,0.0294404327869,0.0024995803833,-0.0146672129631,0.0113852322102,-0.0350981988013
1765470142.5666828,15.228788614273071,0.04321154054719021,-0.02263334473841837,1.3387758736727953,-0.00652446784079,-0.0252755358815,0.09792137146,0.07360650599,0.0730030313134,-0.0267460942268
1765470142.7661064,15.42821216583252,0.05152798093669479,-0.021943810720304827,1.3339779226529085,-0.0625536218286,-0.00158662442118,0.037166595459,-0.0238254684955,-0.0493884161115,-0.0168263912201
1765470142.9672701,15.62937593460083,0.04063407498756268,-0.02163731000716113,1.3308644210224967,-0.00869352370501,-0.0447818785906,0.105507850647,-0.0654220581055,0.066844381392,-0.00315457582474
1765470143.167798,15.829903841018677,0.035823856781904743,-0.02854473844293204,1.3303351177558436,0.0494980253279,-0.0566936917603,-0.00186347961426,0.0170476734638,-0.0880554318428,0.00483915256336
1765470143.3676786,16.029784440994263,0.04591161970788067,-0.044813685775414266,1.3307760040743062,-0.058264143765,-0.0711025297642,-0.049919128418,0.0339187718928,-0.0881478190422,0.0125922271982
1765470143.5679104,16.230016231536865,0.045813436448630014,-0.06357369573490777,1.331362831620505,-0.0026116555091,0.00398023985326,-0.0803136825562,-0.0407412685454,-0.0750735402107,0.0090666115284
1765470143.766147,16.428252696990967,0.03727741010486999,-0.06836588766893723,1.3306196765183185,0.00982258934528,0.0470485985279,-0.0825300216675,-0.0411868132651,0.0461556017399,-0.00470429705456
1765470143.9680555,16.63016128540039,0.031277135479569534,-0.05262291465174565,1.3282964679413878,0.00327518791892,-0.0125250313431,-0.0549640655518,-0.0146388988942,0.0942192971706,-0.0159218925983
1765470144.1669698,16.829075574874878,0.03495279088479947,-0.03877032411650877,1.3235826728119477,-0.0257982965559,-0.0096182692796,-0.00408554077148,0.0243358332664,0.0477530062199,-0.0203788336366
1765470144.3665862,17.02869200706482,0.03958713226759288,-0.020518249717109832,1.3180229245622437,-0.0335482656956,-0.0147734414786,0.0625276565552,0.00362619757652,0.147842630744,-0.0360816754401
1765470144.5658011,17.227906942367554,0.03761905622202433,-0.004079063973133491,1.309282563022658,-0.0472594350576,-0.11207447201,0.093695640564,-0.0229924917221,-0.0376090444624,-0.041751563549
1765470144.7674997,17.42960548400879,0.03649693329671944,-0.02077645982954983,1.3007485964675538,0.0145471990108,0.0846524685621,0.102206230164,0.00966563913971,-0.0293195266277,-0.0297322906554
1765470144.9681253,17.630231142044067,0.04286556679326449,-0.020201770472256745,1.2936628569132345,-0.0410232357681,-0.0713988915086,-0.0203161239624,0.0298835355788,-0.00967830233276,-0.0276640038937
1765470145.1699696,17.832075357437134,0.04932501408298125,-0.02644108669193243,1.2876876555334782,-0.0187119320035,0.0175766423345,0.000741004943848,0.020352749154,-0.0349625945091,-0.0166386365891
1765470145.3681695,18.030275344848633,0.047279956037152585,-0.03570268711349534,1.2843596362772607,-0.0612408146262,0.0260357744992,-0.0213785171509,-0.0520348586142,-0.0664666295052,-0.00384002947249
1765470145.5672,18.229305744171143,0.035482397918264554,-0.040983714749176454,1.2825895662587394,0.0238455776125,0.0304769724607,-0.0262718200684,-0.0364422798157,0.0283963978291,0.00202581309713
1765470145.7670631,18.429168939590454,0.04061803360318415,-0.0352567782396644,1.2834572241418873,-0.00113631691784,-0.0332677029073,-0.0388278961182,0.0549025833607,0.00388547801413,0.0106908380985
1765470145.9653556,18.627461433410645,0.04550472614401939,-0.04367731493827746,1.2838757399071932,-0.0469665527344,0.03858397156,-0.0124998092651,-0.0338300988078,-0.0515118278563,0.00207945727743
1765470146.1667197,18.8288254737854,0.03310274072919726,-0.04035252892607086,1.2817093915184683,0.0247056949884,0.0331050008535,-0.0125408172607,-0.0664740800858,0.0806070938706,-0.00869333930314
1765470146.3663263,19.0284321308136,0.030650707976317856,-0.026473516919987953,1.279297765993347,0.0113801639527,-0.0261502694339,-8.96453857422e-05,0.024231525138,0.0322423912585,-0.0106140971184
1765470146.567908,19.230013847351074,0.04028987390023754,-0.027431087698844964,1.2754770619354647,-0.020925110206,0.0602364651859,0.0655479431152,0.0352300740778,-0.00264346553013,-0.0205501895398
1765470146.768878,19.430983781814575,0.03908128978566755,-0.022744635743659262,1.2696712376010375,-0.0788583904505,-0.0292838551104,0.0265045166016,-0.0521645061672,-0.00443607568741,-0.0287696756423
1765470146.9680233,19.630129098892212,0.030253046010703985,-0.05754559731799979,1.262834104134477,-0.12367477268,-0.29100716114,-0.176512718201,-0.0474452897906,-0.427614182234,-0.0186622142792
1765470147.1685836,19.830689430236816,0.04989241719797944,-0.05936608846609672,1.259284509875565,-0.116432204843,-0.130006060004,-0.0512762069702,0.221643641591,0.497800976038,-0.00943988747895
1765470147.3668826,20.028988361358643,0.07120755129226823,-0.015314719028852725,1.2617790928686423,-0.159423857927,-0.038761947304,0.103910446167,-0.0487402044237,0.0238545201719,0.0186793524772
1765470147.566927,20.22903275489807,0.03926990400868321,-0.011812831763858559,1.2670936971400044,-0.0956375971437,-0.206585302949,0.0378341674805,-0.215400770307,-0.0658094882965,0.042300671339
1765470147.7666159,20.42872166633606,0.016495712378410573,-0.027334739524032942,1.275093966212657,0.0773266851902,-0.0249715466052,0.0536394119263,0.0400029122829,0.0768266692758,0.0528611242771
1765470147.9662235,20.628329277038574,0.042972954603032736,-0.03306597454199195,1.28600134193124,-0.0444884411991,-0.0161111820489,-0.0177793502808,0.151849552989,-0.106975443661,0.063594430685
1765470148.166636,20.828741788864136,0.05820500848747102,-0.04202577223302163,1.2959720838944422,-0.134528487921,-0.0104443868622,-0.0331268310547,-0.0341400541365,3.94880771637e-05,0.050384555012
1765470148.3668926,21.028998374938965,0.034974603838602895,-0.04960620644339078,1.3039387971373597,-0.00272908946499,0.0210029538721,-0.0125942230225,-0.167772173882,-0.0456914417446,0.0438682846725
1765470148.567327,21.229432821273804,0.01825073241588089,-0.05249033500254094,1.3104024222610364,0.0696889907122,-0.0018319580704,-0.0361661911011,0.00792220234871,0.0230215508491,0.0354923307896
1765470148.7672997,21.429405450820923,0.03872022339850165,-0.04516041270458577,1.3165599170174087,-0.0426269061863,-0.00773861538619,-0.0424718856812,0.13825969398,0.0469230152667,0.0301338769495
1765470148.9678419,21.629947662353516,0.05505163434211385,-0.037151650644769406,1.321760138519952,-0.110111966729,0.0377705097198,-0.00485038757324,-0.0162005405873,0.0483699068427,0.0215478222817
1765470149.1673405,21.82944631576538,0.03590807092900009,-0.02391892749800528,1.325040487192657,-0.0680845603347,-0.0724963843822,0.0669269561768,-0.142766535282,0.0637553706765,0.0179149229079
1765470149.366025,22.028130769729614,0.019052085910264138,-0.03033047741939804,1.3285611861537419,0.0887224078178,0.10064805299,0.054069519043,0.00788047909737,0.00622347043827,0.0261805951595
1765470149.5661237,22.228229522705078,0.03922207529998107,-0.021927860882088774,1.3334166614531742,-0.0520800575614,-0.0484084375203,0.104558944702,0.126156955957,-0.0108733773232,0.0315703488886
1765470149.7688687,22.43097448348999,0.05454763526700556,-0.03005185667391611,1.3378976963033415,-0.0952177941799,0.000481237657368,0.00144004821777,0.000985711929388,-0.035585463047,0.0297270771116
1765470149.9679954,22.630101203918457,0.04130051024440899,-0.0405172995349519,1.3420243975704738,-0.0609107911587,-0.0487809069455,-0.0440731048584,-0.107596799731,-0.0798314735293,0.0296436268836
1765470150.1669693,22.82907509803772,0.0249032755293852,-0.06898889675525843,1.3468637607453113,0.0129679916427,0.00441328156739,-0.0714797973633,-0.0351697206497,-0.177237406373,0.0332720577717
1765470150.3668938,23.02899956703186,0.03420756351038964,-0.08041400763450969,1.352099535448407,-0.0256978329271,0.00143183860928,-0.112939834595,0.0991337001324,0.0367306172848,0.0275902468711
1765470150.567803,23.22990870475769,0.05080710068031317,-0.06875420984538441,1.3566669898759476,-0.104862697423,0.0399889647961,-0.0809831619263,0.0336684286594,0.0809840932488,0.0202186405659
1765470150.7680752,23.43018102645874,0.04202276785441689,-0.04101137417381045,1.3604404228244809,-0.0775826647878,-0.0167177058756,0.0373363494873,-0.110913798213,0.213531419635,0.0144906351343
1765470150.9667335,23.628839254379272,0.022925739020163056,-0.0013766936876751532,1.3638330237371328,-0.0530375875533,-0.212568342686,0.354139328003,-0.0484317578375,0.132977217436,0.0202603656799
1765470151.1670244,23.829130172729492,0.03275757424597697,-0.012045357976238801,1.3684757124654678,0.00391770713031,-0.0658811926842,0.0604486465454,0.120820865035,-0.117364525795,0.0390954352915
1765470151.367776,24.029881715774536,0.05494801656976375,-0.04535763226687375,1.3741674203471852,-0.107115596533,-0.0332970395684,-0.0380182266235,0.043494258076,-0.185403227806,0.0410832501948
1765470151.571264,24.233369827270508,0.045861776983604156,-0.07295359460432983,1.3797957449949587,-0.0768483057618,0.0325723551214,-0.0793943405151,-0.116147115827,-0.0903845056891,0.0369884110987
1765470151.768012,24.43011784553528,0.025679797127198062,-0.08193600419748998,1.3861661594804826,-0.0194266904145,-0.0508931465447,-0.131271362305,-0.0658199265599,-0.0487133860588,0.0383190847933
1765470151.9654877,24.627593517303467,0.02768193250639521,-0.09373245960123915,1.3920075370154625,0.00754380598664,0.0935089737177,-0.104399681091,0.0636123195291,-0.0105693945661,0.0305362045765
1765470152.1665618,24.828667640686035,0.042973541330710394,-0.07795754945691263,1.396405880713783,-0.0951505750418,0.0174021348357,-0.0904331207275,0.0523783266544,0.1118831411,0.0165797770023
1765470152.3679357,25.030041456222534,0.042594190678185415,-0.053632797820671305,1.399050000202068,0.000379950506613,0.0304455403239,0.0603427886963,-0.0308305043727,0.141351670027,0.00402703881264
1765470152.569034,25.23113989830017,0.05751774231747324,-0.011824355137059655,1.3994691817576466,0.0554559528828,-0.0326759293675,0.406571388245,0.0684998929501,0.141160979867,-0.00543892383575
1765470152.7668855,25.428991317749023,0.053074399519108945,-0.01591003123983711,1.4020178269208523,0.0391591414809,-0.101819463074,0.0890111923218,-0.00337064289488,-0.13604016602,0.0261045992374
1765470152.968249,25.63035488128662,0.062461638726285545,-0.06143108276939815,1.4048362503024832,-0.0506415851414,-0.192491665483,0.00323963165283,0.0321574546397,-0.329668819904,0.0438086725771
1765470153.1679757,25.830081462860107,0.07578011566015022,-0.12946465786856393,1.410238472573709,-0.297615021467,-0.0603824406862,0.0625152587891,0.00437870668247,-0.380402803421,0.0639282166958
1765470153.3669384,26.029044151306152,0.06894175880396404,-0.19543997146855913,1.4169357900830402,0.0671127140522,1.38079822063,-0.297499656677,-0.0308796800673,-0.115649424493,0.0696800798178
1765470153.5662441,26.228349924087524,0.059744810779052006,-0.1969997183399913,1.4200403701238,-0.0474750995636,0.00464553013444,0.339642524719,0.0149510810152,0.0948838964105,-0.0223100185394
1765470153.7699053,26.432011127471924,0.0610402389122938,-0.18872496058273566,1.417168550362313,0.0353043675423,-0.0795494765043,0.0795116424561,-0.000664591847453,0.0256516039371,0.00052824622253
1765470153.9670765,26.6291823387146,0.06306772841730635,-0.18863978936212356,1.4184613819134921,-0.0582573711872,-0.0836877152324,0.00878810882568,0.00868961215019,-0.0173077005893,0.0148050496355
1765470154.1679118,26.830017566680908,0.0638614086787988,-0.19367464520572966,1.4196657965164805,-0.0892110615969,-0.049923826009,0.0155420303345,-0.006444752682,-0.0313088223338,0.0113047650084
1765470154.3685422,27.03064799308777,0.06315556279900851,-0.19763534831316595,1.4202275903484327,-0.0544467940927,0.0372569561005,-0.016565322876,-0.007663667202,0.0135786831379,0.00329837226309
1765470154.5670807,27.229186534881592,0.06261305607901337,-0.19529654359910156,1.4205951065788636,-0.0712550282478,-0.0516569241881,0.0205326080322,-0.00190436851699,0.0137262046337,0.0086344787851
1765470154.7669775,27.429083347320557,0.06293825301524726,-0.1962341760398912,1.4211735451676288,-0.0649782344699,-0.0460980013013,0.0345258712769,-0.00510066747665,-0.0150039801374,0.00555738853291
1765470154.9669342,27.629040002822876,0.06241812100959797,-0.19750944737263246,1.4194050730457617,-0.0320391282439,-0.0401369296014,0.0102033615112,-0.014512241818,0.00803247094154,-0.0116959223524
1765470155.1676638,27.829769611358643,0.0635763048005382,-0.1979298772849719,1.4198560793763666,-0.084731169045,-0.0424563884735,0.0163612365723,0.00527724670246,-0.00822842214257,0.0148214399815
1765470155.3677294,28.02983522415161,0.06369248936428212,-0.19793507044909756,1.419562865340349,-0.0651508122683,-0.0391839072108,0.0124168395996,-0.0113695859909,0.00390335940756,-0.00238865613937
1765470155.5698857,28.23199152946472,0.06305152058535969,-0.19819113338790867,1.4199807153153823,-0.0833760052919,-0.0488837733865,0.00824356079102,-0.00581592414528,-0.00103861105163,0.0139929382131
1765470155.7672107,28.429316520690918,0.06261908148097967,-0.19821425295512193,1.4211596967299605,-0.0559399835765,-0.0650649443269,0.192367553711,-0.00718981167302,0.00152513384819,0.00613108417019
1765470155.9660282,28.62813401222229,0.06333918775616948,-0.19821124025413878,1.4211756756965008,-0.0581198856235,-0.0263568945229,-0.00842666625977,-9.23872066778e-05,-0.000852346594911,-0.00270009040833
1765470156.1688087,28.83091449737549,0.06309902888249318,-0.1985505769112853,1.4204008289773422,-0.0542789697647,-0.0281126704067,0.00844955444336,-0.00823438167572,-0.000587105809245,-0.000859797000885
1765470156.3681018,29.030207633972168,0.06236484114303957,-0.1989130664251587,1.4210804676875306,-0.0357138924301,-0.0345814041793,0.00983238220215,-0.00376701308414,0.000453740329249,0.00578686641529
1765470156.5682645,29.23037028312683,0.06239892544380338,-0.19898686927686754,1.4210017712773186,-0.0471956580877,-0.040072761476,0.00910186767578,0.00367835233919,-0.000342726765666,0.00515356706455
1765470156.766316,29.42842173576355,0.06332913848424364,-0.19878884660506335,1.4208226736940108,-0.0938144475222,-0.0289642717689,0.0116481781006,-0.00109672546387,0.00599250197411,0.00203624390997
1765470156.9685595,29.63066530227661,0.06303443890368035,-0.19880632359971698,1.4211908557147144,-0.0655550062656,-0.0413114205003,-0.017391204834,-0.00876635313034,0.000867992697749,0.00906363129616
1765470157.167989,29.830094814300537,0.06238327937239917,-0.19901879392043487,1.4220101772240772,-0.0507954955101,-0.0293103046715,0.00907230377197,-0.00895410869271,-0.000140070915222,0.00700578093529
1765470157.36777,30.02987575531006,0.06274573559675894,-0.19923694010322598,1.4217333416287634,-0.0892298296094,-0.0276366714388,0.0202884674072,-0.00333935022354,0.000297278194921,0.00662282109261
1765470157.5684988,30.230604648590088,0.06210521206508127,-0.19935015773906797,1.4221432021205267,-0.071300894022,-0.0404093414545,0.00559520721436,-0.00789910648018,0.00140890467446,0.00421777367592
1765470157.768724,30.430829763412476,0.061964767768282414,-0.19945450371952864,1.4223911424180131,-0.065354347229,-0.0508594810963,0.0073938369751,0.00531747937202,-0.00428557442501,0.00055655837059
1765470157.9680777,30.630183458328247,0.06306509022335148,-0.1993387727254079,1.422226026430428,-0.0954311341047,-0.0399555563927,0.00472927093506,-0.00623613689095,0.00059977179626,0.00351145933382
1765470158.1660585,30.82816433906555,0.0623317014322249,-0.19947229696456173,1.4224932746458177,-0.0993209406734,-0.0496948137879,0.00602626800537,-0.0086694965139,-0.00611692667007,0.00859722401947
1765470158.3682568,31.030362606048584,0.06180690473347877,-0.19947765657625552,1.4229116572530691,-0.048045348376,-0.047287389636,0.00983905792236,0.000900775252376,0.00385716580786,0.00484958291054
1765470158.5668874,31.22899317741394,0.06285935686795366,-0.19934383273147904,1.423012058426165,-0.0878942683339,-0.0568965449929,0.028130531311,0.00168755662162,-0.0028982758522,0.00494793104008
1765470158.7671578,31.429263591766357,0.0625976014223125,-0.19970532355994366,1.4228039323869752,-0.0560848489404,-0.0419192016125,0.0101661682129,-0.00772327277809,0.000352412491338,0.00795647595078
1765470158.9669964,31.62910223007202,0.06162778634422492,-0.19978829767265646,1.4233285751217208,-0.0706228464842,-0.0368944853544,-0.00101470947266,-0.0106260180473,0.00025108459522,0.00590011570603
1765470159.1687856,31.830891370773315,0.0618280768641449,-0.1997481172297099,1.4234220520759826,-0.0817490294576,-0.0471922084689,0.0137491226196,0.00152811419684,8.19563956611e-06,0.0029169023037
1765470159.3684843,32.03059005737305,0.06255154538021093,-0.19960042830250818,1.4234233836565278,-0.0795558094978,-0.0303586479276,0.00471496582031,-0.00653862860054,0.00423863576725,0.00595077872276
1765470159.568016,32.23012185096741,0.062474492639734376,-0.19944180377008033,1.4236610707838173,-0.0859122723341,-0.051742464304,0.0196657180786,-0.00445842789486,0.000553578138351,0.00748559832573
1765470159.7673974,32.429503202438354,0.06219189795856334,-0.19957148307041037,1.4239489584976548,-0.0854331105947,-0.0373856648803,0.00016975402832,-0.00538826035336,-0.00465214252472,0.00698790093884
1765470159.968139,32.630244731903076,0.06165857082195055,-0.19970607257400025,1.4241697345520223,-0.0697955936193,-0.0563737004995,0.0207557678223,-0.00524669932202,-0.0004455447488,0.00654235482216
1765470160.1688735,32.830979347229004,0.06158426446634814,-0.19977917634592293,1.424240441478964,-0.0738101527095,-0.0492827519774,-0.00183582305908,-0.00338256405666,0.000827759678941,0.00539794657379
1765470160.3663697,33.028475522994995,0.06202177606036692,-0.1997350843851253,1.4242297888346038,-0.0943580642343,-0.0412371940911,0.00213050842285,-0.00838488340378,-0.000180304064997,0.00473037408665
1765470160.568525,33.23063087463379,0.061630370442720135,-0.19971645890225156,1.4244163432689638,-0.0701164826751,-0.0445303991437,-0.00407028198242,-0.0125899929553,-0.00017434360052,0.00626072380692
1765470160.7666988,33.42880463600159,0.06168811526529362,-0.1996835688627891,1.4245399139435435,-0.0815508887172,-0.0482957810163,0.00814437866211,-0.00534355640411,8.12113285065e-05,0.00467971013859
1765470160.9661267,33.62823247909546,0.06188100302962102,-0.1996278755064928,1.4245499007976312,-0.0796228647232,-0.0426295697689,0.00314998626709,0.00239387177862,-0.000390410423279,0.000453740387456
1765470161.1664617,33.82856750488281,0.061716644378471096,-0.1996550231048548,1.4247172804721426,-0.0717893689871,-0.0424353405833,-0.00241374969482,-0.0085309157148,-0.00542253255844,0.00599250104278
1765470161.3653073,34.02741312980652,0.06155956364723766,-0.1997023108589605,1.4248891875205074,-0.104331970215,-0.0422363169491,0.000219345092773,-0.00704228878021,0.00198259972967,0.00970736145973
1765470161.5699048,34.23201060295105,0.06110140839358155,-0.1998725201421302,1.4250905224989174,-0.0770818442106,-0.0559241995215,0.00413608551025,-0.00548809813336,0.000775605498347,0.0076048085466
1765470161.7713022,34.43340802192688,0.06087222673702342,-0.19989753721162015,1.425182401556525,-0.0707127153873,-0.0432373955846,-0.00755310058594,-0.00692754983902,0.000949949084315,0.00366941094398
1765470161.9687388,34.630844593048096,0.06116945215943308,-0.19962599464897293,1.4252978495897801,-0.0912854000926,-0.0280703883618,0.00866031646729,-0.00335276150145,0.00432357192039,0.00429823994637
1765470162.1658633,34.82796907424927,0.061794496067274676,-0.19921089105881365,1.425298115905889,-0.0797662883997,-0.0594257377088,0.00220680236816,-0.00437051057816,0.0056184832938,0.00518336892128
1765470162.3679373,35.03004312515259,0.06140011936053677,-0.19877489829885406,1.425436067650355,-0.0797746703029,-0.0741328150034,0.00728034973145,-0.0163406152278,0.00477954791859,0.00998750329018
1765470162.5657372,35.227843046188354,0.06091976832367054,-0.19975747158303878,1.425971096713352,-0.0832858979702,-0.019398983568,-0.0192966461182,-0.00724643561989,-0.00123828661162,0.00327304052189
1765470162.7675962,35.429702043533325,0.06106962939163634,-0.19971620923089936,1.4253893291732243,-0.0985504090786,-0.0617896206677,0.00133800506592,-0.00235140300356,0.0031866133213,0.00534877181053
1765470162.9655628,35.627668619155884,0.06109931947660152,-0.19965830212194696,1.4255106361608774,-0.0878236740828,-0.0569579191506,0.0211162567139,-0.00984668824822,0.000534206628799,0.00758394738659
1765470163.166278,35.828383684158325,0.06111365061221751,-0.19958844407760282,1.4256029146926485,-0.0875626653433,-0.0283436384052,0.0121555328369,-0.00404417561367,0.00338330888189,0.00344440340996
1765470163.3677287,36.029834508895874,0.06163370771646114,-0.19948666138969134,1.425511834583368,-0.0924173742533,-0.0420684926212,0.00224304199219,-0.00338703417219,-6.55651092529e-05,0.00340864085592
1765470163.56629,36.22839570045471,0.0610644487110783,-0.19949055626278558,1.42584952340959,-0.0843869522214,-0.0359165966511,0.00805759429932,-0.00733882188797,0.00067129736999,0.00944361183792
1765470163.768181,36.43028688430786,0.06086189866542096,-0.19929145168178855,1.4267519355449634,-0.0734983980656,-0.045124720782,-0.00532722473145,-0.0028491015546,0.00121667969506,0.00951364636421
1765470163.9696205,36.63172626495361,0.06163913806837138,-0.19950635213700113,1.4262147759530943,-0.0778429657221,-0.0360112190247,0.0131711959839,-0.00239163637161,-0.00176727795042,-0.000326335459249
1765470164.166219,36.82832479476929,0.061138247401597914,-0.19975392624983762,1.4257524511878565,-0.0877179652452,-0.0367850996554,-0.0033540725708,-0.00316947721876,0.00562295224518,0.0094421217218
1765470164.3688123,37.03091812133789,0.06030366681142672,-0.1997933743234844,1.4263484666398163,-0.0938174799085,-0.0227688346058,-0.00935554504395,-0.00654309988022,0.00666305469349,0.00517889903858
1765470164.5689304,37.23103618621826,0.06162845213449744,-0.19956296095492213,1.426000657801452,-0.103683538735,-0.0316610559821,-0.00160884857178,0.000106543302536,0.00354573153891,0.00220462679863
1765470164.765278,37.42738389968872,0.06228455931974129,-0.19934065358292777,1.4255970557382505,-0.094012632966,-0.0433341115713,0.0135145187378,-0.00997036788613,-0.00204443954863,0.00273063778877
1765470164.9696298,37.6317355632782,0.06116930651781097,-0.19942555848743085,1.4263426076854182,-0.0919818878174,-0.0418916791677,0.00259685516357,-0.00730603933334,0.00166669522878,0.0168479979038
1765470165.1693058,37.831411600112915,0.06097295248287726,-0.19958390005899287,1.426759259237961,-0.0823149904609,-0.0551569759846,0.00984954833984,-0.00513940956444,-0.00440478371456,0.000225752606639
1765470165.3688843,38.03099012374878,0.06145443952439598,-0.19973744794059275,1.4267117218125032,-0.083595700562,-0.0428359024227,0.0097770690918,-0.0084385285154,-0.00141710042953,0.00773742841557
1765470165.5672693,38.22937512397766,0.06105470320596429,-0.19985647459656247,1.4267906845388239,-0.0801690369844,-0.0430503413081,-0.00821018218994,-0.00842958688736,-0.0143796205521,0.00540837692097
1765470165.768898,38.43100380897522,0.06124525654314866,-0.1997014952658767,1.4267905513807695,-0.0798249617219,-0.0343080610037,0.0079870223999,-0.0052452092059,0.00720247626305,0.00864043924958
1765470165.9679165,38.630022287368774,0.061598641375045365,-0.19956552424747132,1.4267677813534492,-0.0995653197169,-0.0383996888995,0.00966644287109,-0.00637173792347,-0.00184178375639,0.00702664349228
1765470166.1660094,38.82811522483826,0.06139393583338074,-0.19949371876658006,1.426873109374562,-0.0736994221807,-0.0483763888478,0.000278472900391,-0.00186115503311,0.00131204735953,0.00616237521172
1765470166.365792,39.02789783477783,0.06133296192798554,-0.1995177038611476,1.4269926853075063,-0.0901604071259,-0.0475014075637,-0.00196266174316,-0.011658671312,-0.00198781513609,0.00351741956547
1765470166.5679662,39.230072021484375,0.061455725331859785,-0.19965633804064303,1.4270056016387933,-0.0808665528893,-0.0538125634193,-0.00448226928711,-0.000622868479695,-7.89761543274e-05,0.00570043874905
1765470166.7672825,39.42938828468323,0.06112881398567415,-0.19983495292600328,1.427164059723653,-0.0814324691892,-0.0512686558068,0.000115394592285,-0.00750124594197,-0.00503063201904,0.00592842698097
1765470166.968247,39.63035273551941,0.060498959743113596,-0.19970081283084734,1.4274125326533573,-0.0682498812675,-0.0357953384519,0.00761318206787,-0.00426471279934,-0.00126510858536,0.00611916230991
1765470167.1672044,39.829310178756714,0.060981986424637515,-0.1996290239947129,1.4272484819302085,-0.0859322026372,-0.0661989673972,0.00093936920166,-0.00284016132355,0.00235214829445,0.00452473806217
1765470167.3678682,40.02997398376465,0.06154823272903721,-0.19952774064950582,1.4270189174442438,-0.112005837262,-0.0468953996897,0.0104169845581,-0.00982582569122,-0.00361502193846,0.00330433249474
1765470167.5655606,40.22766637802124,0.061437732349744936,-0.19959660000844118,1.4268759056937064,-0.084712818265,-0.0332195311785,-0.00431632995605,-0.0075027346611,0.000419467716711,0.00571981118992
1765470167.7657893,40.427895069122314,0.060804536672254175,-0.19969951453981594,1.4270372932557653,-0.0924458727241,-0.0426269136369,-0.0040454864502,-0.0106751937419,-0.000190734906937,0.00691488478333
1765470167.9677463,40.629852056503296,0.06056685786734301,-0.19970219434566283,1.4271885608056818,-0.0972684472799,-0.0293526798487,0.00889587402344,-0.00122785579879,0.00172480929177,0.0014282760676
1765470168.1698997,40.83200550079346,0.06132797682332004,-0.1996824536640826,1.4270125258576276,-0.124431587756,-0.0254317186773,0.0234527587891,-0.00111758708954,-0.0031262638513,0.00481531023979
1765470168.3693264,41.031432151794434,0.06094595884851579,-0.19974100991855073,1.427114924401541,-0.0782430619001,-0.0571873039007,-0.0325555801392,-0.0131666669622,-0.000253319682088,0.00846907496452
1765470168.5689805,41.23108625411987,0.060302260329476026,-0.19975797092574318,1.4272162576810186,-0.0869671329856,-0.0505408272147,0.0116367340088,-0.00502169132233,-0.000204145922908,0.00584647059441
1765470168.7682333,41.430339097976685,0.061294895369154216,-0.19962401392291218,1.4269233099611098,-0.106348797679,-0.0583868026733,0.00436878204346,-0.000943243561778,-0.00100731861312,0.0045545399189
1765470168.9657307,41.62783646583557,0.06148382168136012,-0.19969377209871544,1.4267342255237143,-0.0958600565791,-0.0402247533202,-0.00190734863281,-0.00769048929214,0.000920146761928,0.00603422522545
1765470169.1670864,41.82919216156006,0.06063873824963993,-0.19977365028666103,1.4269633905355155,-0.0833187252283,-0.0365511998534,0.0106544494629,-0.0100195417181,0.00186488032341,0.00703260302544
1765470169.366142,42.02824783325195,0.0608235241785886,-0.19985642466229203,1.426910659945932,-0.0856892690063,-0.0369142740965,0.00531101226807,-0.00277459574863,0.00317469262518,0.00576898362488
1765470169.5663776,42.22848343849182,0.06097931494116903,-0.199907607289492,1.4268511382955686,-0.0881530344486,-0.0452226959169,0.0444583892822,-0.00866204593331,0.00399127649143,0.00504776835442
1765470169.7679746,42.43008041381836,0.06060466227125452,-0.19991501420627378,1.4269374247148874,-0.074834048748,-0.0283979810774,0.00493144989014,-0.00494718598202,-0.00176876783371,0.00613704370335
1765470169.9683616,42.63046741485596,0.061511314658425985,-0.19969530341634226,1.4267253039340624,-0.0939351469278,-0.0430395379663,-0.00929069519043,-0.00104010105133,0.00487938569859,0.00248327874579
1765470170.167257,42.829362869262695,0.061629538204879486,-0.19981672691729305,1.42652862948756,-0.107959568501,-0.0317339785397,0.00340843200684,-0.00922530982643,0.00275447964668,0.00464394735172
1765470170.367866,43.02997183799744,0.060595128986789884,-0.19997308776279432,1.4267966766512765,-0.0645833536983,-0.0531395897269,-0.00467014312744,-0.0199675541371,0.0072099273093,0.00711604952812
1765470170.5679579,43.230063676834106,0.060942609091207176,-0.20004644120606918,1.4267278339370981,-0.0922610536218,-0.050232231617,0.0048828125,-0.00121742498595,0.00120177865028,0.00391826080158
1765470170.7683554,43.430461168289185,0.06113132318276371,-0.1999515328027215,1.4267049307517234,-0.0947025120258,-0.0592289492488,-0.00713634490967,-0.0108286738396,0.00186488043983,0.00651553226635
1765470170.9684167,43.63052248954773,0.06062126957736469,-0.20004013284323707,1.4267499381741457,-0.0518458411098,-0.0376206338406,-0.00424003601074,-0.00393688725308,0.00252351164818,0.00642463704571
1765470171.1678078,43.82991361618042,0.061046763656964494,-0.1999868696214355,1.426610788007189,-0.0803463160992,-0.0421314500272,-0.0126934051514,-0.00438243150711,0.00130906701088,0.00512823509052
1765470171.3688564,44.030962228775024,0.06130479899945795,-0.19995328050218686,1.4264235677825565,-0.105630420148,-0.0449119135737,0.00577449798584,-0.00108182430267,-0.0019729139749,0.00316426157951
1765470171.5692446,44.23135042190552,0.061028874704579725,-0.19997927961232875,1.4264434083326776,-0.0886211171746,-0.0470333732665,-0.00346279144287,-0.0141337523237,0.00880137085915,0.0139288622886
1765470171.7682636,44.43036937713623,0.06090852895163257,-0.20023659090790086,1.4264002651230183,-0.0864522531629,-0.0581550896168,0.00900363922119,-0.00628829095513,0.00149086152669,0.004114956595
1765470171.9686306,44.630736351013184,0.061076191587009866,-0.20024927421259237,1.4263284929316407,-0.108474910259,-0.0610699430108,0.013313293457,-0.0086233029142,0.00396743463352,0.0111661851406
1765470172.1686893,44.83079504966736,0.06075661225620036,-0.2002607258052797,1.4263548582264325,-0.0739598199725,-0.0482947081327,-0.0144472122192,-0.00481009529904,-0.00218749046326,0.00827238056809
1765470172.3658698,45.02797555923462,0.06139879194118093,-0.20006173773758035,1.4260781557891733,-0.0884628891945,-0.0442076474428,0.00698566436768,0.00198855996132,0.00146105897147,0.00452026771381
1765470172.566515,45.228620767593384,0.0612868018561539,-0.19268200184367307,1.4256789479417704,-0.0114859081805,0.104009643197,-0.0422582626343,-0.00239014648832,0.0862680375576,-0.000509619771037
1765470172.768568,45.43067383766174,0.06047718007882379,-0.16564008104268355,1.42511129515542,-0.112309962511,0.0624255277216,-0.0719795227051,-0.0158324856311,0.182522073388,0.00922754220665
1765470172.968311,45.63041687011719,0.0577388928788691,-0.12410082672892736,1.4339371441659972,-0.0883751809597,-0.0692167803645,0.0443315505981,-0.0144302872941,0.214488059282,0.0628389492631
1765470173.169432,45.83153772354126,0.056966180849771814,-0.0947258103654603,1.4507270432584016,-0.149956539273,-0.191501736641,0.0897264480591,0.0180475432426,0.0771827995777,0.0921629369259
1765470173.3691516,46.03125739097595,0.05474616560389256,-0.08632551785232104,1.4691984622630823,-0.0775662362576,-0.0232022479177,-0.0843801498413,-0.0417083576322,0.0515364222229,0.0842817276716
1765470173.5689497,46.23105549812317,0.0509610938091578,-0.07403812534637258,1.4819784397021545,-0.0604732148349,-0.0763341337442,0.106937408447,-0.0144526381046,0.0581704154611,0.0541515685618
1765470173.7685642,46.43067002296448,0.048993854162619095,-0.08684044004908786,1.491334390927712,-0.082543477416,-0.189978182316,-0.106231689453,0.0153683135286,-0.142882764339,0.0676415935159
1765470173.967873,46.62997889518738,0.051660939254116994,-0.10289350904689475,1.4998113658354886,-0.00858810916543,0.183726519346,-0.14219379425,0.00138506293297,0.0150255886838,0.0149376718327
1765470174.1667323,46.82883810997009,0.053004520668818784,-0.07878674130706562,1.4920716870755002,0.074228875339,0.125679165125,0.0070219039917,0.0167898852378,0.203072279692,-0.0930458381772
1765470174.3664298,47.02853560447693,0.05959667244341635,-0.03866432614393441,1.467071395500436,-0.115625806153,-0.187238350511,0.101010322571,0.0177390873432,0.165712088346,-0.154784336686
1765470174.5671058,47.2292115688324,0.06516848398062049,-0.026613636644028948,1.4289395892224088,0.0213866699487,-0.221850693226,0.00635051727295,0.0207625348121,-0.0230580568314,-0.231610253453
1765470174.7680185,47.430124282836914,0.07835832191145593,-0.04341814359113151,1.3754024613027094,-0.211615249515,-0.201635673642,0.182214736938,0.0313021242619,-0.205141350627,-0.237669065595
1765470174.9683807,47.630486488342285,0.08048910877724992,-0.0922265252285834,1.3289952814114248,0.0454089194536,0.11873999238,-0.115792274475,-0.0097244977951,-0.230865225196,-0.224986702204
1765470175.1679134,47.83001923561096,0.08632081570852138,-0.1205698662752674,1.271531988254676,-0.204440176487,0.00625280663371,0.00964164733887,-0.0192463416606,-0.151427105069,-0.283339619637
1765470175.367306,48.02941179275513,0.0851847527993856,-0.14603820008953478,1.2096289392446562,-0.133303016424,-0.0768256857991,0.0714139938354,-0.0656828284264,-0.14451892674,-0.301377475262
1765470175.5680637,48.23016953468323,0.08346144622513055,-0.1671105620833276,1.147047583104993,-0.15236312151,-0.0996793136001,0.0628805160522,-0.0469833612442,-0.144608333707,-0.279492169619
1765470175.7670817,48.429187536239624,0.08571738501740145,-0.19156690300574328,1.094019451848635,-0.143869832158,-0.0548403710127,-0.0537052154541,-0.0581801012158,-0.134512796998,-0.197780162096
1765470175.9675577,48.62966346740723,0.07630120473931626,-0.20239386790416272,1.0847772176016242,-0.111455887556,-0.105378031731,-0.0405216217041,0.0114254662767,-0.0108078131452,0.039517134428
1765470176.166258,48.82836389541626,0.08386926773418416,-0.2026105327035975,1.08716547388818,-0.127195328474,-0.0426826067269,0.0195817947388,-0.0319808758795,0.00935569405556,0.0118337580934
1765470176.3657446,49.02785038948059,0.07871211453989455,-0.20108066317064466,1.0875640159453104,-0.112103901803,-0.0120237004012,0.117270469666,-0.0380590520799,0.0227190554142,0.0124521553516
1765470176.568205,49.230310916900635,0.07291572778258028,-0.19309309404744043,1.0917446462245166,-0.0211799517274,0.136966302991,-0.286794662476,-0.0291854180396,0.0812627449632,0.0351063907146
1765470176.7687902,49.430896043777466,0.06845557794102405,-0.16640464130213167,1.1036471120844078,-0.0329272821546,0.0442147254944,-0.0536518096924,-0.0130489477888,0.16746596992,0.0759191811085
1765470176.966602,49.62870788574219,0.0694894045926252,-0.1293701239722445,1.1239667648856033,-0.109329655766,-0.0102588906884,-0.0388412475586,0.0351898483932,0.215148210526,0.11435674876
1765470177.1661856,49.82829141616821,0.07499696320734198,-0.08437554297978662,1.1535547509124928,-0.223919004202,-0.0127319246531,-0.00351905822754,0.0326998531818,0.208393529058,0.157812997699
1765470177.3670845,50.02919030189514,0.06900488820536653,-0.0543658121047696,1.1863722192352666,-0.165446788073,-0.135385081172,0.0754270553589,-0.0525087118149,0.0917084589601,0.170653313398
1765470177.5685658,50.230671644210815,0.055278668825043106,-0.04770205042517333,1.2231649881172018,-0.0599333792925,-0.0309536457062,-0.0448331832886,-0.0688433647156,0.04608258605,0.215493902564
1765470177.7681231,50.43022894859314,0.04771140893969144,-0.03956955956558757,1.268660434809298,-0.177156046033,-0.0327666513622,0.0500726699829,-0.0313222445548,0.0388883054256,0.253152161837
1765470177.9681945,50.63030028343201,0.04033253441194925,-0.047741015800872554,1.3234539089732422,-0.131052866578,-0.191737785935,0.0565967559814,-0.016613304615,-0.0916570499539,0.30299654603
1765470178.1686459,50.83075165748596,0.04016976533507497,-0.07590065698898993,1.3846167323582745,-0.0509288273752,0.0034392811358,-0.0634365081787,0.0783480703831,-0.14204980433,0.31740295887
1765470178.3702054,51.03231120109558,0.04586034137332903,-0.08991822203137881,1.4444791341830212,-0.12227678299,-0.0028082402423,-0.0353660583496,-0.0217124838382,0.00678524421528,0.311467826366
1765470178.568198,51.23030376434326,0.04088700455090375,-0.10310652864458746,1.5039069081178669,-0.00953017733991,-0.0566588491201,0.0365867614746,0.0142358271405,-0.0924125313759,0.301939994097
1765470178.7692752,51.43138098716736,0.042186448231726674,-0.12505325635852377,1.5666842729137598,-0.0136139802635,-0.032420784235,0.0509090423584,0.0655494779348,-0.0976920351386,0.331590384245
1765470178.9697826,51.6318883895874,0.04098155509197997,-0.1438885963261637,1.6315793834084835,0.0167383346707,0.0786797106266,0.0885419845581,0.0157155096531,-0.0603526942432,0.321421802044
1765470179.16895,51.831055879592896,0.04910352230407072,-0.15232890283468137,1.6796244073701672,-0.296474397182,-0.130980461836,-0.0328893661499,0.136541590095,0.00680908700451,0.057739764452
1765470179.3689752,52.03108096122742,0.05463610631065583,-0.14847549182966166,1.6855653871299159,-0.179764285684,0.0153453554958,-0.0736474990845,-0.0155866155401,0.0330351293087,-0.00912547204643
1765470179.5664814,52.22858715057373,0.05066155892674034,-0.1335362649906452,1.6779491458864528,-0.024764996022,0.0122275203466,-0.0648107528687,-0.0293314438313,0.123389810324,-0.0482827350497
1765470179.7676864,52.429792165756226,0.05261901977865141,-0.09829616895849662,1.6702880303786218,-0.125830441713,-0.000507710501552,-0.0385189056396,0.00847950670868,0.22779032588,-0.0423654876649
1765470179.9662693,52.62837505340576,0.04792397080657179,-0.05313263120081921,1.6618374207656368,-0.0956376940012,-0.048956554383,0.0768556594849,-0.0594913996756,0.20603312552,-0.0502377673984
1765470180.172302,52.834407806396484,0.04633947734294792,-0.018832031822223334,1.6585429573391544,-0.16773326695,-0.0685084462166,0.0255098342896,0.0541202761233,0.124060362577,0.0101588675752
1765470180.3689141,53.03101992607117,0.05582976423955377,-0.0022851771281332056,1.664110828230183,-0.0666559115052,-0.0961332246661,-0.00335121154785,0.049685690552,0.046943873167,0.0468425452709
1765470180.568014,53.230119705200195,0.06462679285370916,0.00170281245735473,1.6732121812555287,-0.0961569473147,-0.0941981300712,0.0486297607422,0.0273339450359,0.00888183806092,0.0411100685596
1765470180.7668452,53.428951025009155,0.0614000278143743,-0.011765165341535343,1.6777127903397082,-0.128103002906,-0.0697910934687,0.000860214233398,-0.0486686863005,-0.109551869333,0.0242032110691
1765470180.9673223,53.62942814826965,0.046749366963035534,-0.030768122171471325,1.6740000774640287,-0.0848437696695,0.00609513372183,-0.0385875701904,-0.0461444295943,-0.0471294000745,-0.0208377856761
1765470181.1675217,53.8296275138855,0.041700433816354826,-0.0370589060598074,1.6640887239931355,-0.0968241691589,0.0349910221994,0.0682621002197,-0.0823527649045,-0.0244662165642,-0.056628882885
1765470181.3649478,54.02705359458923,0.029123975980024273,-0.04060562493698006,1.6547012143086606,-0.0455515570939,-0.01879135333,0.0045166015625,-0.0532045960426,-0.016480686143,-0.0307366251945
1765470181.5691998,54.23130559921265,0.023414245987867656,-0.04259990815215068,1.6502530694979558,-0.0633499920368,-0.0225825123489,-0.0127878189087,-0.00827908609062,0.00124350178521,-0.00299811316654
1765470181.768681,54.43078684806824,0.02596210260571947,-0.04188721295493185,1.6517498991886348,-0.0578925944865,-0.0301365964115,0.00623512268066,0.0158540923148,0.00587776210159,0.0174157302827
1765470181.969515,54.63162088394165,0.028142688503303342,-0.04133039590526672,1.6529531153691326,-0.0724686160684,-0.0555274896324,0.00350856781006,-0.00453591393307,0.00480487942696,0.00225529074669
1765470182.1669602,54.829066038131714,0.026644271318943265,-0.04172132714734434,1.6516139448149862,-0.062138762325,-0.0265044625849,0.00422191619873,-0.0105530032888,0.00128969550133,0.00476017640904
1765470182.36701,55.02911591529846,0.026757913396083993,-0.041669320604682134,1.6514329830189154,-0.0526890270412,-0.0186142865568,-0.00884342193604,-0.00163018715102,0.00108405959327,0.0101618468761
1765470182.566541,55.228646755218506,0.027095134088520673,-0.04165865547675421,1.6515681384442369,-0.0692593455315,-0.00376036623493,0.0149850845337,-0.0144869107753,0.00140890514012,0.00437572598457
1765470182.7679696,55.4300754070282,0.025843325621101934,-0.04207020957252312,1.650448412363913,-0.0449093356729,-0.0155717246234,-0.00289344787598,-0.0123590249568,-0.000868737872224,-0.00100433838088
1765470182.9694998,55.63160562515259,0.0261017521153805,-0.041995578644162854,1.6504505428927851,-0.0860415324569,-0.00219949288294,0.0163707733154,-0.00409632921219,-0.000225007577683,0.00532194972038
1765470183.1703584,55.83246421813965,0.025294331607138915,-0.042251079822431536,1.6497184399091223,-0.0404252745211,-0.0266600977629,-0.00845050811768,-0.0110119562596,-0.0018984079361,0.00289604044519
1765470183.3685956,56.03070139884949,0.026327350988034633,-0.04208832739031407,1.6501583941212035,-0.0756089538336,-0.0144111225381,0.0218486785889,0.00232085585594,0.00188276183326,0.0104062259197
1765470183.5691664,56.23127222061157,0.026640871627364213,-0.04205655254955806,1.6502510721271382,-0.0738302245736,-0.031445350498,0.0118045806885,-0.00507533596829,-0.00281333876774,0.000493973377161
1765470183.767672,56.42977786064148,0.025786300684260615,-0.042276629524139485,1.6493691663321584,-0.069828607142,-0.0380682982504,0.0169506072998,-0.00919252634048,-0.003372133011,0.000987201929092
1765470183.966903,56.629008769989014,0.025858443221477338,-0.04226949308465591,1.649293266241091,-0.06767834723,-0.0213011279702,0.0134248733521,-0.00551789999008,0.00149533129297,0.00709369825199
1765470184.168335,56.83044075965881,0.026157116737729726,-0.042079239353094176,1.6494112442773816,-0.052659265697,-0.0191081538796,-0.0020170211792,-0.00715404748917,-0.00117570173461,0.00570192933083
1765470184.3695724,57.031678199768066,0.026062564116058905,-0.04191664088497723,1.649137338159267,-0.0505498386919,-0.0272926297039,0.00609493255615,-0.00189393770415,0.00631883740425,0.00686719920486
1765470184.5701077,57.232213497161865,0.02618935138989269,-0.041913182936749324,1.6490337411928628,-0.058999825269,-0.0239021033049,0.00343322753906,-0.00414252281189,-0.000287592381937,0.00191405415535
1765470184.7695663,57.43167209625244,0.026206971945573847,-0.04194907735481655,1.6488585051931357,-0.0641922131181,-0.0089003816247,-0.00510597229004,-0.0033602125477,-0.00299066328444,0.00571981072426
1765470184.9688637,57.630969524383545,0.026515043507641774,-0.04215224325647597,1.6488262809439458,-0.0562540963292,-0.0232592113316,0.00195407867432,-0.0013455748558,-0.00311136315577,0.00750199053437
1765470185.1662328,57.828338623046875,0.026686153688273966,-0.043128957586262534,1.648801779861917,-0.048487983644,-0.00939414650202,0.00349807739258,-0.00397563027218,-0.00307708978653,0.00373348593712
1765470185.3706706,58.03277635574341,0.026371157907371837,-0.0433070772901076,1.648485795798579,-0.0571993999183,0.00251634046435,0.00598907470703,-0.00521689699963,0.00291541172192,0.00640377448872
1765470185.5672433,58.22934913635254,0.026417330462771085,-0.04330672358902532,1.6482655523764296,-0.0330140255392,-0.0235451385379,0.0141906738281,-0.000852346478496,0.000905245600734,0.0032939016819
1765470185.7683911,58.43049693107605,0.025665147660608026,-0.04351400074561755,1.6480049620637653,-0.0740483254194,-0.0190670602024,-0.0108051300049,-0.00878870487213,6.03497064731e-05,0.00667795538902
1765470185.9667659,58.62887167930603,0.025797186355216314,-0.0434780730380367,1.6480554289664222,-0.045516230166,-0.0125898746774,-0.00737571716309,-0.00380128691904,0.00210776925087,0.00875070691109
1765470186.1666663,58.82877206802368,0.02643371930644808,-0.04340819834893574,1.6483622251239995,-0.037518735975,-0.0341845676303,0.00593566894531,-0.0102758407593,-0.000774860440288,0.00414624810219
1765470186.3674526,59.029558420181274,0.026143692741360046,-0.043443830612083165,1.648228134963114,-0.0353497974575,-0.0265567209572,-0.00124073028564,-0.00486075924709,0.00266060256399,0.00390782952309
1765470186.569305,59.23141074180603,0.026462081972057423,-0.043350087341712376,1.648278069233553,-0.0723937302828,-0.0331694707274,0.0122756958008,-0.00395029829815,-0.000360608100891,0.0036679210607
1765470186.7688687,59.43097448348999,0.026378556501775213,-0.04331851223803813,1.648064616872183,-0.0572686679661,-0.0258459597826,0.00490188598633,-0.0081405043602,0.00388249778189,0.00602826429531
1765470186.970062,59.63216781616211,0.026873910706313755,-0.043071603915474155,1.6483032361058543,-0.0533923730254,-0.0176748968661,-0.00389289855957,-0.00993311498314,0.00890716910362,0.00701025174931
1765470187.1672862,59.829391956329346,0.027250013550665593,-0.042956551195193524,1.6485184195219327,-0.0341068729758,-0.0295176282525,0.00957679748535,-0.0107333082706,0.00598058197647,0.00365898082964
1765470187.3683224,60.03042817115784,0.0267734242288391,-0.04304776446252874,1.6479042945745603,-0.04818206653,-0.0276576951146,-0.00965690612793,-0.00687241600826,-0.00447928905487,0.00383779429831
1765470187.566703,60.228808879852295,0.027629210239190048,-0.042913303955804165,1.6484478457530456,-0.0490317232907,-0.0289300233126,-0.00829410552979,0.00551268458366,-0.000715255795512,0.0129856178537
1765470187.7680705,60.43017625808716,0.030809407410151358,-0.037723431330809416,1.649922571206677,-0.0538494959474,0.0285408105701,-0.0446453094482,0.00362321804278,0.0683046877384,0.00145509873983
1765470187.970922,60.63302779197693,0.033823281848658814,-0.028346813559074112,1.6476321195111543,-0.0909299552441,-0.285197973251,0.278756141663,-0.0178918242455,-0.0775575637817,-0.0149309644476
1765470188.1660285,60.828134298324585,0.048138684008270226,-0.04227725786370917,1.6164305241797858,0.0246097631752,-0.153763622046,-0.00558471679688,0.0490464270115,-0.127491369843,-0.219313830137
1765470188.3690982,61.03120398521423,0.06236822418986181,-0.07489305831293686,1.560559135564632,0.0413957536221,-0.0382865779102,-0.0187406539917,0.0214926917106,-0.213672220707,-0.302745401859
1765470188.566218,61.22832369804382,0.07243631717447398,-0.10848977589304638,1.4806896028926106,-0.0473054721951,-0.0333655625582,0.0281352996826,-0.0258982218802,-0.182180151343,-0.429621398449
1765470188.7659929,61.42809867858887,0.07469622574124478,-0.13824918627035276,1.3844512168965262,0.0822681486607,-0.0693552196026,-0.134659767151,-0.06148667261,-0.153072193265,-0.491452276707
1765470188.9668841,61.628989934921265,0.07180737839353814,-0.15859114304567776,1.286539833103654,-0.092276096344,-0.116992086172,0.0370407104492,-0.112742200494,-0.151436075568,-0.425314962864
1765470189.1695619,61.83166766166687,0.0688601287553639,-0.18695673813222072,1.2045717294926501,-0.0354761704803,-0.16222307086,0.112100601196,-0.102345630527,-0.112463526428,-0.344952911139
1765470189.3685029,62.03060865402222,0.06463578518357739,-0.2012934830312556,1.1410791727860166,-0.149089187384,0.246128261089,-0.0966186523438,-0.104999557137,-0.0170037169009,-0.22476169467
1765470189.568616,62.23072171211243,0.06186139550609531,-0.20089713808202456,1.1038610970779956,-0.0719163566828,0.0751256048679,-0.0766487121582,-0.000119209296827,-0.00572651671246,-0.119087100029
1765470189.766648,62.42875385284424,0.06879937539299646,-0.19850668468756943,1.0868009537139753,-0.0788480937481,-0.0213443301618,0.0406255722046,0.00965073797852,0.0156618654728,-0.0428423322737
1765470189.9659464,62.62805223464966,0.07140978508754613,-0.19414965327565895,1.0829016198249086,-0.0271676108241,0.0693695619702,-0.266900062561,-0.0154420733452,0.0567920543253,0.0109322378412
1765470190.1693025,62.83140826225281,0.06712133423489436,-0.18313586762677042,1.086786040011871,-0.151977479458,-0.135897189379,0.0342969894409,-0.0295460280031,0.0415124073625,0.0386156179011
1765470190.3670907,63.0291965007782,0.06087381215010986,-0.18077404321403365,1.096263165067027,-0.0916629135609,-0.0478072538972,0.0117168426514,-0.0231683254242,-0.00654608011246,0.064785040915
1765470190.568447,63.23055291175842,0.05769078953167955,-0.18705026502075295,1.1092891520117951,-0.0816497951746,-0.0523829832673,0.0398235321045,0.00605508731678,-0.0407263636589,0.0788487568498
1765470190.767797,63.42990279197693,0.05921984347154854,-0.19849140480081512,1.1235035080139841,-0.0328776426613,-0.0659438818693,-0.00239181518555,0.0213779509068,-0.0593856014311,0.0783123150468
1765470190.9678748,63.62998056411743,0.06087225170415864,-0.2081223606984368,1.1339452300159667,0.0901691615582,0.11095893383,0.0472240447998,-0.00911951065063,-0.00620782421902,0.0293605029583
1765470191.168207,63.830312728881836,0.055479878967777,-0.20602768463254859,1.1357336758460095,-0.0484059080482,-0.0332259573042,0.0219583511353,-0.0339314341545,0.0280745364726,0.0127725331113
1765470191.3657374,64.02784323692322,0.05521185261000654,-0.2020392014259914,1.139013625044551,-0.0394344776869,-0.0564267858863,0.00876331329346,0.0128068029881,0.0151716200635,0.0290848314762
1765470191.5667984,64.22890424728394,0.05772324264627569,-0.2010592080791127,1.1424356538872484,-0.0526312291622,-0.0275164842606,0.0155067443848,-0.000956654723268,-0.00222623348236,0.0123821217567
1765470191.7694275,64.4315333366394,0.056297852251838025,-0.2030516520486555,1.1427807995645227,-0.0272938981652,-0.0515598356724,0.00597381591797,-0.0131979584694,-0.0182330626994,0.0045470893383
1765470191.9684966,64.63060235977173,0.055202635575921345,-0.20726240933769338,1.1409602626433444,-0.0245868228376,-0.0168348196894,-0.010724067688,-0.00764727732167,-0.0166073460132,-0.0105023384094
1765470192.1688063,64.8309121131897,0.05612711033645032,-0.20769697064856707,1.13901389136066,-0.0488320365548,-0.0326014608145,0.000216484069824,0.0190682709217,0.01321360562,-0.00257343053818
1765470192.3666677,65.02877354621887,0.057671918538642813,-0.2056891635684859,1.138877803828957,-0.0602645799518,-0.0187560450286,0.0175361633301,-0.00564306974411,0.00763014005497,0.00504478858784
1765470192.5717268,65.23383259773254,0.05694620714159622,-0.20517074597278834,1.1386546309296084,-0.0335996970534,-0.0439322069287,0.0145921707153,-0.0107467183843,-0.00771433208138,0.00750199100003
1765470192.76897,65.43107581138611,0.056336110225372694,-0.20800841069329504,1.1395960583749514,-0.0303671695292,0.00898041762412,-0.0300512313843,-0.00615269038826,-0.0128939766437,0.0120930382982
1765470192.9676409,65.62974667549133,0.055977515584593525,-0.20765512572993922,1.1400245609943451,-0.0339358113706,-0.0704389065504,0.0105476379395,-0.0065490603447,0.0133849689737,0.0046469271183
1765470193.1694288,65.83153462409973,0.05689102561157194,-0.20642045095906483,1.1401135105747537,-0.0631727278233,-0.0295261852443,0.018012046814,0.00444427132607,0.00469908164814,0.00265911291353
1765470193.367724,66.02982974052429,0.05680531343636342,-0.20725783202956982,1.139989140951847,-0.0666783154011,-0.0492484308779,0.012318611145,-0.0119283813983,-0.0117868212983,0.00647380948067
1765470193.5686028,66.23070859909058,0.05581831264686643,-0.2081531202090272,1.1401161737358438,-0.0184222124517,-0.0198711641133,-0.00138092041016,-0.00979900360107,0.00867322087288,0.00495836185291
1765470193.7659757,66.42808151245117,0.056721760918351384,-0.20789510983366896,1.1402087185837242,-0.0777877420187,0.00322503037751,-0.023286819458,0.00442937063053,0.00415667891502,0.00298991822638
1765470193.9665298,66.62863564491272,0.05703667555606405,-0.20794847292401145,1.1395949931105154,-0.0665389448404,0.0119753647596,0.00353622436523,-0.0112012028694,0.0025920572225,0.00248178862967
1765470194.1659632,66.82806897163391,0.05633065074513803,-0.20802289163172233,1.1400946021310143,-0.0471046194434,-0.028245896101,0.00163745880127,-0.00798255205154,-0.000393390684621,0.0137962400913
1765470194.3694904,67.03159618377686,0.05608526125663325,-0.20803445973770737,1.1405607884798326,-0.0381341651082,-0.0188948586583,0.00549697875977,-0.00644922396168,0.000146776452311,0.00446811318398
1765470194.57089,67.2329957485199,0.057010276971758644,-0.20799419607097672,1.1399715640886525,-0.0587237551808,-0.0197193585336,0.0033655166626,-0.00392645504326,-0.00176578771789,0.00440403819084
1765470194.769446,67.43155169487,0.05742546378570199,-0.2076849864236617,1.139447986618343,-0.0556400492787,0.0183644704521,0.00160503387451,-0.00668168114498,9.685754776e-06,0.00552907586098
1765470194.966638,67.62874388694763,0.05649188434319631,-0.20786356801950834,1.1401272258543678,-0.0514749884605,-0.011431099847,-0.0200824737549,-0.00741630839184,-0.00478476285934,0.0134699037299
1765470195.1696794,67.83178520202637,0.056097104001105694,-0.20797741815610923,1.1412609335304145,-0.0403193756938,-0.0486264936626,0.0075626373291,-0.00385046028532,-0.00222176336683,0.00452324748039
1765470195.3688035,68.03090929985046,0.05707141316353277,-0.20815864626828912,1.1404080561913166,-0.0386201776564,-0.0102218706161,0.00676727294922,0.00104680669028,-0.00524818897247,-0.000686943589244
1765470195.5668073,68.22891306877136,0.057565841503473596,-0.20793870245176221,1.139509505639524,-0.0639481469989,-0.0308343674988,0.00119686126709,-0.00873655080795,-0.00114738952834,0.00469908164814
1765470195.7698267,68.43193244934082,0.05635181455342576,-0.2080553821970213,1.1400804873772368,-0.0298122875392,-0.0172498635948,0.0162534713745,-0.0101760048419,0.00143572723027,0.0136755425483
1765470195.9662194,68.62832522392273,0.05680065290445578,-0.20770912132104055,1.1415035475057207,-0.0406375601888,-0.0256664585322,0.00404834747314,-0.000515580119099,0.00435039354488,0.00867620110512
1765470196.1663654,68.82847118377686,0.057342348192556306,-0.20792696789820905,1.1406631870237463,-0.0519798621535,-0.0120757613331,0.00293159484863,-0.00743120908737,-0.00703036831692,-0.00227391719818
1765470196.3682659,69.03037166595459,0.056202099127082066,-0.2081788197135465,1.1409452157831856,-0.0518918037415,-0.0236059073359,-0.00413990020752,-0.0127568850294,0.00163987278938,0.0091589987278
1765470196.569038,69.23114371299744,0.05604986618127041,-0.2081423510513692,1.1414604042960614,-0.0169840175658,-0.0420219264925,0.00551509857178,-0.000154972076416,0.00345632457174,0.00591203570366
1765470196.7692754,69.43138122558594,0.05745685995824051,-0.20799314745129752,1.1406244380298856,-0.0660279765725,0.00214236788452,-0.00474548339844,-0.00213086628355,-0.00144243251998,0.000711530447006
1765470196.9691436,69.63124942779541,0.0568045228104148,-0.20790483037164775,1.1408674514793553,-0.0287762843072,-0.0173796899617,-0.00220966339111,-0.0139832505956,-0.000828504562378,0.00749752065167
1765470197.1701062,69.83221197128296,0.055387496406275674,-0.20805150396868388,1.1415429622898539,-0.0352690927684,-0.0295865349472,-0.0139980316162,-0.0215753912926,-0.00034719708492,0.0152595331892
1765470197.3662114,70.02831721305847,0.05681265377411795,-0.20771747698896068,1.1413161941230336,-0.0467655733228,-0.0325598753989,-0.0100727081299,0.0043652956374,0.00186339044012,0.00201091193594
1765470197.570472,70.23257780075073,0.05735818151747467,-0.20764234255670683,1.1407457450175387,-0.037395440042,-0.0261769630015,0.000844955444336,-0.0062957406044,-0.000196695327759,0.00226572179236
1765470197.7690413,70.43114709854126,0.056315936780115344,-0.20775008406755735,1.1410450843240636,-0.0264063477516,-0.0192130915821,-0.00555610656738,-0.0143378973007,-0.00277608656324,0.00681057572365
1765470197.966821,70.6289267539978,0.056268253713035316,-0.20768323872419636,1.1412055397797407,-0.034742847085,-0.0169954262674,-0.00560665130615,-0.0025138258934,9.6857556855e-06,0.0044964258559
1765470198.1680613,70.83016705513,0.05732232455011027,-0.20754463783421453,1.1408908872969479,-0.0388032756746,-0.00887354835868,0.00834369659424,-0.00205188989639,0.000660866557155,0.00810399651527
1765470198.369814,71.0319197177887,0.05703832338698854,-0.20746961991525836,1.140942419464041,-0.034573815763,-0.0112778041512,0.00516128540039,-0.0114977369085,0.0086270282045,0.00580623745918
1765470198.5696094,71.23171520233154,0.056315350052437686,-0.2074877127659141,1.1412345682356226,-0.0474290922284,-0.0232399441302,0.0133094787598,-0.00407099723816,-0.000131130233058,0.00585690140724
1765470198.76911,71.43121576309204,0.05657286940746994,-0.20740383983633343,1.1411152586187872,-0.0442716293037,-0.018161861226,-0.000630378723145,-0.00158846389968,0.00210627913475,0.00620856881142
1765470198.966384,71.62848973274231,0.057199186639207734,-0.20720232176559847,1.1409220462817018,-0.0429380238056,-0.018103979528,0.00602436065674,-0.00642091082409,0.00302270054817,0.00645890971646
1765470199.1667705,71.82887625694275,0.05698811031687294,-0.20730974702606955,1.1409911553119894,-0.0338901281357,-0.0172253232449,-0.00994873046875,-0.00384301017039,0.00318214320578,0.00678822491318
1765470199.3729155,72.03502130508423,0.05628999176543309,-0.20734050653665997,1.1411691876308612,-0.0151589512825,-0.0321553573012,-0.00215625762939,-0.00891089532524,0.00123605132103,0.00553205655888
1765470199.56661,72.22871589660645,0.05677000158478465,-0.20724867741332267,1.1410944859622845,-0.0350913032889,-0.0108393840492,-0.013111114502,-0.00199824571609,0.0014401973458,0.00442788051441
1765470199.76624,72.42834568023682,0.05750772633506102,-0.20713392845985387,1.1409113936373416,-0.0477185472846,-0.0361663773656,0.00547790527344,-0.00173896551132,4.09781969211e-05,0.00649616122246
1765470199.9693797,72.63148546218872,0.05672583888377057,-0.20716297356049257,1.14115880130261,-0.0340956263244,-0.0241307076067,0.00119018554688,-0.0106766829267,0.00121071946342,0.00598654150963
1765470200.1679142,72.8300199508667,0.056408481627995596,-0.20709056886835603,1.1413036772659102,-0.0441507920623,-0.0130549073219,0.00635242462158,-0.0145837664604,0.00174269091804,0.00632032752037
1765470200.3666465,73.02875232696533,0.0570857859110408,-0.20702888339960707,1.1410446848499,-0.0147966202348,-0.00159027986228,0.00512886047363,-0.00361353182234,-0.00131279230118,0.00376477884129
1765470200.5664418,73.2285475730896,0.0570723494311035,-0.20703008182209762,1.1410276406189235,-0.0274700578302,-0.0184973236173,0.00931835174561,-0.00516623258591,0.00193342578132,0.00869557261467
1765470200.765588,73.42769384384155,0.05661054065332695,-0.20698104636852652,1.1411681223664252,-0.0380806624889,-0.0215836334974,0.000186920166016,-0.0101849455386,0.00343695329502,0.00697299977764
1765470200.967316,73.62942171096802,0.05666975021449998,-0.20699324697527044,1.1412046076733593,-0.0230212230235,-0.0118249095976,0.0125303268433,0.0100560486317,0.00254884385504,0.00447854399681
1765470201.1706836,73.83278942108154,0.05686516382067375,-0.2070206941792551,1.1411307049531096,-0.0431073829532,-0.00602640211582,0.00534439086914,-0.00408887816593,-0.00290423631668,0.00412985682487
1765470201.3695788,74.0316846370697,0.05703375024005417,-0.2069784497864637,1.1410846322662511,-0.0334538966417,-0.0314536504447,-0.00117301940918,-0.00532418536022,-0.00100582838058,0.00896081421524
1765470201.5688574,74.23096323013306,0.056912601377590785,-0.2069513021881017,1.141173848162769,-0.024681026116,0.00191377475858,-0.0101366043091,-0.00622868584469,-0.000584125577006,0.00616684462875
1765470201.7666576,74.4287633895874,0.056324687761009774,-0.20699765783582588,1.1413165935971972,-0.0178329646587,-0.00662235543132,0.00688457489014,-0.00539124011993,0.00067129736999,0.00703856348991
1765470201.9665973,74.6287031173706,0.0571102578647451,-0.206837701722853,1.1410051369077123,-0.0370412617922,-0.0121922697872,-0.00844764709473,-0.00353604578413,0.000529736280441,0.00443086028099
1765470202.1688914,74.83099722862244,0.0576264325794621,-0.20664009516996912,1.1408505404064333,-0.0535654835403,-0.0029627699405,0.00957775115967,-0.00836253259331,0.0036425893195,0.0068001463078
1765470202.3682406,75.0303463935852,0.05604231778405572,-0.20671687743314748,1.1413315072993016,-0.0152743887156,-0.017383787781,0.0160570144653,-0.0123977689072,-0.003513694508,0.00858977437019
1765470202.566938,75.22904372215271,0.056377676344323946,-0.2066436571479271,1.141718198289581,-0.0198794994503,0.0037953723222,-0.00887012481689,0.00171735894401,0.000890344381332,0.0029347834643
1765470202.7687786,75.43088436126709,0.05792740307215468,-0.20650359151934575,1.1409189836464482,-0.042927917093,0.000299839302897,0.0120296478271,0.00067278748611,0.00341311097145,0.000939518213272
1765470202.9692569,75.63136267662048,0.05704708685145058,-0.20660633960315236,1.14089568098691,-0.0298202503473,-0.00744527205825,-0.0105867385864,-0.0129371890798,-0.00235587358475,0.00914856884629
1765470203.1665292,75.8286349773407,0.05591585508297978,-0.20665214597390175,1.1416268518641912,-0.0131390988827,0.00232071615756,0.0131502151489,-0.0022575261537,-0.000181794181117,0.00462159514427
1765470203.367102,76.02920770645142,0.0572620372409336,-0.20639237125432133,1.141196085557871,-0.0354301631451,0.00156257301569,0.000755310058594,0.00168159638997,-0.000457465706859,0.000176578774699
1765470203.569687,76.23179268836975,0.057960201565454686,-0.20637001734592147,1.1406029995831104,-0.0374163016677,0.0106793362647,0.00350475311279,-0.0158250331879,-0.00158548366744,0.00421330379322
1765470203.7763734,76.43847918510437,0.056363112182112575,-0.20654462084488978,1.1413365673053726,-0.0266363378614,-0.0242458190769,0.00255107879639,-0.0114023694769,-0.000914931413718,0.0120662180707
1765470203.9696124,76.63171815872192,0.05648901312264607,-0.20652611187531375,1.1417420335813373,-0.0245826784521,-0.015170359984,0.00782775878906,0.0030376012437,-0.00296533107758,0.00141337525565
1765470204.1670644,76.82917022705078,0.05786656232481398,-0.2065727005496333,1.141227244542625,-0.0320657156408,-0.0101619400084,0.000685691833496,-0.00120550394058,0.00179186474998,0.000516325235367
1765470204.3689845,77.031090259552,0.05717259664019897,-0.20667070487774822,1.141348817846387,-0.0308325979859,-0.0190593767911,-0.00798416137695,-0.0115364789963,-0.00135898578446,0.00712349964306
1765470204.569309,77.23141479492188,0.05616703278566629,-0.206681673772488,1.1419490943560908,-0.0234563834965,-0.0275549478829,0.00019359588623,-0.00558048626408,-0.00341087626293,0.0067390515469
1765470204.7691712,77.43127703666687,0.05711733604757983,-0.20655658842503832,1.1416405671438052,-0.0359992496669,-0.00214306637645,0.00707340240479,-0.00280141830444,0.00437721610069,-0.00158697401639
1765470204.9680142,77.6301200389862,0.05770230354220494,-0.20646452627510564,1.1414171279283476,-0.0225626863539,-0.00996910966933,0.0115871429443,-0.00445991754532,0.0058569018729,0.00321343541145
1765470205.1697192,77.83182501792908,0.056700143540440506,-0.20643330071132449,1.1417466941132448,-0.0237218104303,0.0146708451211,0.012095451355,-0.0106498599052,0.000172108426341,0.00749602960423
1765470205.366746,78.02885174751282,0.056467728639871456,-0.20632808920350953,1.141839505277234,-0.0038405880332,-0.0176850706339,0.0148620605469,0.00114515423775,0.00339671992697,-0.00152736902237
1765470205.5665197,78.22862553596497,0.0576402643723737,-0.20622490835602578,1.14142991110158,-0.024917954579,-0.00167042016983,0.0055456161499,0.00244304491207,0.00950172357261,0.00205412483774
1765470205.7676847,78.42979049682617,0.05712029465310334,-0.2063576336468526,1.1414613364024428,-0.0500780530274,0.000153202563524,0.00326633453369,-0.0226989388466,-0.00538080977276,0.00959262438118
1765470205.9679813,78.63008713722229,0.05604135238816056,-0.20648411715387455,1.1418813169063484,-0.0101312994957,-0.0135745853186,-0.00176525115967,-0.0158414244652,-0.0019282103749,0.00593587802723
1765470206.1685853,78.83069109916687,0.056662226784420504,-0.2064230641858845,1.1418143384049328,-0.0361104980111,-0.0134282745421,0.0107688903809,0.000510364770889,0.00076964503387,0.00446513295174
1765470206.3694713,79.03157711029053,0.05768920411859311,-0.20624742871199375,1.1414509500741916,-0.0430693849921,-0.00530718825758,-0.00401592254639,-0.0074490904808,0.00150576233864,0.00377669953741
1765470206.569371,79.23147678375244,0.05667000404704138,-0.2063656897091501,1.1417265872470148,-0.0352256000042,-0.0149997882545,0.00830173492432,-0.0108510255814,0.00322088622488,0.00472441315651
1765470206.7683988,79.43050456047058,0.056023771363776835,-0.20658967820158256,1.1421030250670976,-0.0109925866127,-0.0144235324115,-0.000967979431152,-0.00563114881516,-0.00214576697908,0.00600740360096
1765470206.9720268,79.63413262367249,0.05723584255489915,-0.20640254120073406,1.1417617409734038,-0.0239356420934,0.00773910433054,0.00904273986816,0.00432208180428,-0.0017434359761,0.00160709023476
1765470207.1669188,79.82902455329895,0.05713498781218001,-0.20630801562679307,1.1417570804414963,-0.0390536636114,0.00952137634158,-0.00285625457764,-0.011786820367,-0.000704825040884,0.00972226355225
1765470207.3683827,80.03048849105835,0.05604585479487848,-0.20632967045540676,1.1422042251885205,0.00501442700624,-0.00227252021432,0.00145721435547,-0.00625848816708,0.0053383409977,0.00751242088154
1765470207.567447,80.22955274581909,0.0564715028384788,-0.20619717819117533,1.142255624197559,-0.0255338847637,0.00650640577078,-0.00731754302979,0.00174567080103,0.00346526526846,0.00465139793232
1765470207.7702906,80.43239641189575,0.05719018598696111,-0.2060430643878438,1.1420735971370521,-0.0387812964618,-0.0155962072313,0.0111703872681,-0.00217109918594,-0.00282824016176,0.00962689332664
1765470207.9693244,80.63143014907837,0.056539563249087134,-0.2061270871202358,1.142272268954372,-0.0212108716369,0.0132201239467,0.0159540176392,-0.0092402100563,0.000717490911484,0.00567510770634
1765470208.1685202,80.83062601089478,0.056267683630114466,-0.20621718518886453,1.1424670791881113,-0.0109062064439,0.000115623697639,0.00887393951416,-0.00182390224654,-0.000642240047455,0.0062562529929
1765470208.3687756,81.03088140487671,0.05674898757930824,-0.20614867536982226,1.1423411116685507,-0.0302882865071,-0.025774165988,-0.00276947021484,-0.00492930412292,-0.000913441239391,0.00530704902485
1765470208.5670524,81.22915816307068,0.056846875394125466,-0.20613061580868017,1.1423558922126005,-0.0196622684598,-0.0147783197463,-0.00447273254395,-0.00323504256085,0.00156238710042,0.00140443444252
1765470208.7690182,81.43112397193909,0.056608077229318626,-0.20612322553665519,1.1424633507625852,-0.0201088842005,-0.00504646450281,0.010913848877,-0.00488311098889,0.000911206181627,0.00738278124481
1765470208.9692729,81.63137865066528,0.05647399955200075,-0.20615286984853914,1.1424911807959766,-0.307534486055,0.0743852928281,0.108713150024,-0.00925958249718,0.00108703970909,0.00398978637531
1765470209.1676779,81.82978367805481,0.05663338558205279,-0.20611848178096348,1.142418343340163,-0.0376115553081,0.00451044179499,-0.0133686065674,-0.00521689653397,0.00319853448309,0.00304505252279
1765470209.3705869,82.03269267082214,0.057102488924502634,-0.20598700484689764,1.1422985010911093,-0.0343837291002,-0.000480795279145,0.0081262588501,-0.00657886406407,0.00313594983891,0.0036247081589
1765470209.5701272,82.23223304748535,0.056652697661145064,-0.2059819448408265,1.1425435119113967,-0.0285883434117,0.00127106904984,0.00339698791504,-0.00744760083035,1.41561040436e-05,0.00749006774276
1765470209.766322,82.42842769622803,0.05619146312747856,-0.20596541659731119,1.1427124894825622,-0.0209496822208,0.00236737541854,0.0121812820435,0.000347942113876,0.000283867149847,0.00444129109383
1765470209.9686449,82.63075065612793,0.05705718605764687,-0.2058703916806658,1.1424525649601704,-0.0344214513898,0.00567040406168,-0.00345802307129,-0.00779926823452,-0.000336766184773,0.00416859891266
1765470210.169262,82.83136773109436,0.05704376622246639,-0.20590617790781374,1.1424622854981492,-0.0160498078912,-0.00675204209983,0.0083475112915,-0.00933259818703,-0.0040739774704,0.00456646131352
1765470210.3699749,83.03208065032959,0.056229542169877494,-0.20596137192140562,1.1427405858320625,-0.0211079139262,-0.00144490040839,0.018328666687,-0.00291019701399,-0.00367164635099,0.00330880237743
1765470210.569247,83.23135280609131,0.056786251028623336,-0.20584262822630173,1.1425533656074298,-0.0340903177857,0.002496317029,0.0120506286621,-0.00128597009461,-0.00243633985519,0.00105872738641
1765470210.7695587,83.43166446685791,0.05731827571301551,-0.20575760680850094,1.1423794611882476,-0.0460798367858,0.006896071136,0.00478363037109,-0.0048965215683,0.00415965961292,0.00529065774754
1765470210.9672396,83.6293454170227,0.056628654309928694,-0.20573140796127729,1.142574537738096,-0.0340846851468,-0.0145500991493,0.00474071502686,-0.00873357057571,0.00266656256281,0.00481382012367
1765470211.1663454,83.82845115661621,0.05640703769534207,-0.20569575489218384,1.1426893199810784,-0.0112206209451,0.00655874609947,-0.000969886779785,-0.00849813222885,0.000914186239243,0.00469163106754
1765470211.3664014,84.02850723266602,0.05707723882841732,-0.20558463449570027,1.1425313945284368,-0.0282935798168,-0.01494823955,-0.0108690261841,-0.0055164094083,0.00273063732311,0.00515952752903
1765470211.5667007,84.2288064956665,0.0569324793784147,-0.20560044701467264,1.1425343240056358,-0.0619528368115,0.0251592602581,-0.0166463851929,-0.00535100698471,-0.00296086096205,0.00523254321888
1765470211.7691298,84.4312355518341,0.056641920181108654,-0.20563133968331757,1.1426890536649694,-0.0262205954641,0.00803745351732,-0.0148210525513,-0.00243633985519,0.00176951300818,0.00365898059681
1765470211.9693284,84.63143420219421,0.057005383413255624,-0.20548017200194194,1.142642448345893,-0.0134497415274,-0.000753486528993,-0.000515937805176,-0.00200867652893,0.00130012654699,0.00301525066607
1765470212.168233,84.83033871650696,0.057012444951333535,-0.20548554825839252,1.1426150177866652,-0.0265334267169,0.028606550768,0.0185632705688,-0.00575482985005,-0.000534951686859,0.00676885386929
1765470212.3690271,85.03113293647766,0.057057285926187744,-0.20540257414567975,1.1425260682062566,-0.044197961688,0.00742659904063,-0.00365352630615,-0.00242590927519,0.00159367918968,0.00437721610069
1765470212.5682704,85.23037624359131,0.056798443312988854,-0.2054112127744657,1.1426990405190571,-0.0246491283178,-0.0159647781402,-0.0152559280396,-0.0102952122688,-0.000831484852824,0.00684037804604
1765470212.769033,85.43113875389099,0.056791960180210196,-0.20529355098855462,1.1427403195159536,-0.0233504455537,0.000980962067842,-0.0093936920166,-0.000691413937602,0.00165179383475,0.00752881262451
1765470212.970195,85.63230085372925,0.05716854364191501,-0.2052604445672536,1.1425950440784896,-0.0469472706318,-0.00352067872882,-0.0212087631226,-0.00611990690231,-0.00110566604417,0.00390782952309
1765470213.1701639,85.8322696685791,0.05701356431122921,-0.2052239759050763,1.142656696257725,-0.013022031635,0.00154478475451,0.0101318359375,-0.00941902212799,0.00380799197592,0.00539049552754
1765470213.368473,86.03057885169983,0.056924115388116175,-0.20521700175197166,1.1427822643031222,-0.0317055732012,-0.0112891662866,-0.00195503234863,-0.0028699641116,0.00656619807705,0.0029511754401
1765470213.5692801,86.2313859462738,0.05732269073476016,-0.2051533688466756,1.1426457772972556,-0.0148919411004,0.025869673118,-0.00406360626221,-0.00377744506113,-5.06639516971e-05,0.00429823994637
1765470213.7664976,86.42860341072083,0.057358381254556425,-0.20512775256594037,1.1426781347045,-0.0311891082674,-0.0131016597152,0.000844955444336,-0.00482052611187,0.00183209800161,0.00678077479824
1765470213.9670863,86.62919211387634,0.05678087893336194,-0.20488039483494247,1.143348718666982,-0.0348425470293,-0.005276594311,0.0,-0.0101357698441,0.00721886800602,0.0113777825609
1765470214.1693933,86.83149909973145,0.05682242424636718,-0.20439894524412658,1.1442777624132563,-0.0158857554197,-0.0162085983902,0.0061616897583,-0.00362545298412,-0.000190734906937,0.00897124409676
1765470214.3689716,87.03107738494873,0.05708100886583547,-0.20543381635421773,1.1435613720800248,-0.0189231708646,-0.0141413416713,-0.0048770904541,-0.0116363167763,-0.00732243154198,-0.00186264549848
1765470214.5704803,87.232586145401,0.05760292186046374,-0.2052656210866224,1.1428664201935688,-0.027417531237,-0.0275746453553,0.00490760803223,0.00239238142967,-0.00238269590773,0.00479891896248
1765470214.7660835,87.42818927764893,0.05764341439260056,-0.20521305694460698,1.142910628667664,-0.0120848882943,-0.0075951218605,0.00425624847412,-0.00525265978649,0.000897795078345,0.00665858481079
1765470214.9668696,87.62897539138794,0.05698725311189707,-0.2052104104282737,1.1434195587519782,-0.0185553915799,0.0124249141663,0.023551940918,-0.00858903024346,0.00236257910728,0.00749155925587
1765470215.1671169,87.82922267913818,0.05686885063430783,-0.2040098740536228,1.1438738940339457,0.00214800238609,0.00124159269035,-0.00114822387695,-0.00734031246975,0.00880733225495,0.00608935952187
1765470215.3689218,88.0310275554657,0.05643162616234407,-0.19981304842603737,1.1435617715541884,-0.00458685681224,-0.00029313378036,0.0273904800415,-0.00628531118855,0.0242643095553,0.00281408498995
1765470215.5693223,88.2314281463623,0.05666645871384021,-0.1938770454485757,1.1435346073110695,-0.00129248946905,0.0136233866215,0.00365734100342,-0.00632554292679,0.0362567640841,-0.000418722658651
1765470215.769667,88.43177270889282,0.05617670338937464,-0.18467113006093067,1.142439781786938,-0.00521088950336,0.014366209507,-0.0106153488159,-0.00744760036469,0.0608734823763,-0.00415444374084
1765470215.9693608,88.63146662712097,0.05821288977982197,-0.17035202860411755,1.1411051386066449,-0.0162675045431,0.0241809990257,0.0146312713623,0.00383928418159,0.0872708857059,-0.00573545647785
1765470216.166153,88.82825875282288,0.05673178522314201,-0.14677915808382205,1.1430419225094048,-0.0688102766871,-0.0171989202499,-0.115561485291,-0.0321030654013,0.158179551363,0.0215016324073
1765470216.3664646,89.02857041358948,0.04868741170612424,-0.10834593190466847,1.1519126457843498,0.0107086496428,-0.056317217648,0.066388130188,-0.0274330396205,0.224529951811,0.0562943518162
1765470216.5665054,89.22861123085022,0.04867213181936991,-0.0646187659197361,1.1669254174813446,-0.0533652380109,-0.124759584665,0.0878219604492,0.0110305827111,0.211264923215,0.0892348438501
1765470216.7666228,89.42872858047485,0.04830722881575862,-0.04156113384658687,1.1856053619993783,0.320515751839,0.754632532597,0.447376251221,-0.00589787960052,-0.175848603249,0.0368751622736
1765470216.9669538,89.62905955314636,0.043233890294400855,-0.06596051224999926,1.1882244477734167,-0.0771643966436,-0.145221367478,0.0668115615845,-0.046296428889,-0.138121843338,0.0317193605006
1765470217.1679068,89.83001255989075,0.03902795166246031,-0.09627208330625234,1.1941485164602434,0.161189675331,0.188913270831,-0.109335899353,-0.010372698307,-0.0872746184468,0.0210218150169
1765470217.3661795,90.02828526496887,0.04063836933482043,-0.11700433466170684,1.1840917543938319,-0.039232544601,-0.0774405896664,-0.093225479126,0.0126011688262,-0.13907854259,-0.0407353043556
1765470217.5678217,90.22992753982544,0.04370509503739835,-0.13644126607483884,1.1754726998418994,0.0452811121941,0.155036106706,-0.207026481628,-0.0114768743515,0.020445138216,-0.0527277626097
1765470217.7680717,90.43017745018005,0.04142914092505982,-0.1300976330030269,1.164739894332771,-0.303444832563,0.153668880463,0.0305137634277,-0.0522583723068,0.0168733317405,-0.0423789024353
1765470217.967177,90.6292827129364,0.047162169415565426,-0.11072657321498235,1.1516936007846907,-0.0677298083901,-0.0794016718864,0.0042724609375,0.02613738738,0.0565625727177,-0.0619456246495
1765470218.1668851,90.8289909362793,0.05038355403726049,-0.10810697977586112,1.1393727523175483,-0.126990929246,-0.0456868186593,0.0976696014404,-0.000934302748647,-0.00429302453995,-0.0564947761595
1765470218.3665304,91.02863621711731,0.05123936917593586,-0.11683541534719016,1.124914983391726,-0.0587087348104,-0.0613721087575,0.0288124084473,-0.0262916125357,-0.0836491733789,-0.0638663843274
1765470218.5676184,91.22972416877747,0.05029626477134394,-0.13898137247779963,1.1118672251050463,-0.0277628656477,-0.0489458441734,0.0440425872803,-0.00147372495849,-0.139431655407,-0.0376641787589
1765470218.7668777,91.42898344993591,0.05396780684104646,-0.17111437511090954,1.1059725177692377,-0.00333683565259,0.00917762517929,0.0174169540405,0.0114731509238,-0.167916759849,-0.00247806380503
1765470218.9664145,91.62852025032043,0.05438841984571085,-0.18958797457873264,1.104474423077041,-0.0407639443874,0.0239448621869,-0.132689476013,-0.0295445360243,-0.00937283132225,-0.025708977133
1765470219.1671798,91.82928562164307,0.05195970431653185,-0.18011962131041712,1.103534859844461,-0.0087670981884,0.0757334306836,-0.103230476379,-0.00883191823959,0.109916180372,0.00861063692719
1765470219.36773,92.02983570098877,0.04752559935819877,-0.1507832207827562,1.1080075723162217,0.0235943123698,0.0392545945942,-0.026403427124,-0.0150606054813,0.183101788163,0.0270985104144
1765470219.570705,92.23281073570251,0.04563127206887939,-0.11421448200514549,1.1161382031242337,0.0213349945843,-0.0553507357836,0.00770950317383,0.00249817967415,0.178232058883,0.046477470547
1765470219.7708466,92.43295240402222,0.04657542925433973,-0.08398302632462257,1.1278374032139244,-0.00522499904037,-0.0209897980094,0.0735082626343,0.00999048259109,0.112990289927,0.0600434876978
1765470219.9692395,92.63134527206421,0.04353902613748589,-0.06536182115338184,1.141277178813064,-0.0305316057056,-0.00363090075552,0.0619459152222,-0.0371754169464,0.100403279066,0.072773553431
1765470220.167467,92.82957291603088,0.03473169858005245,-0.04457142550119032,1.1569693229041378,0.0929056331515,-0.139830708504,0.330021858215,-0.0351622737944,0.0854320824146,0.0731580033898
1765470220.3698754,93.0319812297821,0.034940827465840124,-0.055102679650070104,1.152813460023069,0.00376703683287,-0.0338225625455,0.0558090209961,0.0221170503646,-0.0356778502464,-0.0230520963669
1765470220.5665922,93.22869801521301,0.038911259433633605,-0.0736496866566277,1.1480450700912823,-0.0322664380074,-0.0215236321092,-0.0841541290283,-0.0097990045324,-0.182868540287,-0.0146642355248
1765470220.769688,93.43179368972778,0.03488228785612882,-0.1143701188037254,1.1424295286167412,0.0414981506765,0.0596099048853,-0.0892534255981,-0.0251144208014,-0.168436765671,-0.0151366023347
1765470220.9697003,93.63180613517761,0.03754199515916936,-0.1232783260710132,1.1392483826946416,0.0851087719202,0.101715609431,-0.0691089630127,0.0362224914134,0.0367827638984,-0.00286847329699
1765470221.1707067,93.83281254768372,0.04592473577624931,-0.08989250588210274,1.1373878983571122,-0.0474979169667,-0.0382264852524,0.0560522079468,0.0042177750729,0.207883894444,-0.0140726584941
1765470221.3716402,94.03374600410461,0.039241062806315494,-0.07224942152259926,1.1307976399236022,-0.0463307499886,-0.0228369385004,-0.00340938568115,-0.0743702054024,0.0524885989726,-0.0277563929558
1765470221.5693784,94.2314841747284,0.028558476609086565,-0.06271876276834348,1.125561199430234,0.033692933619,0.0343686416745,0.0262832641602,-0.0224739275873,0.0451616942883,-0.017228724435
1765470221.766776,94.42888188362122,0.03606086979654339,-0.056337046492943424,1.1273555042146748,0.00605270033702,-0.00754806678742,0.0166873931885,0.0643782317638,0.0430338121951,0.0204347074032
1765470221.9708662,94.63297200202942,0.04516534371379162,-0.05691315897694402,1.1315242834270303,-0.0598067305982,-0.044103756547,-0.000933647155762,-0.00366866611876,-0.0544413924217,0.0292576849461
1765470222.1699276,94.83203339576721,0.03507893317430675,-0.06240371497257632,1.132242138498861,0.0154127599671,0.0424752943218,-0.0158538818359,-0.0830322355032,0.0363044403493,-0.018547475338
1765470222.3706012,95.03270697593689,0.02608680720435703,-0.060500270517712625,1.1286984031943472,0.0786152929068,0.0124651007354,-0.00645351409912,-0.000339746504324,-0.0116646299139,-0.00639259815216
1765470222.5691483,95.23125410079956,0.036142362525899814,-0.06904275086592689,1.1241060482106144,-0.017486024648,-0.0379537716508,-0.0285329818726,0.0684015527368,-0.0792145729065,-0.0147029766813
1765470222.7695732,95.43167901039124,0.04612378210059751,-0.08535503698396095,1.1199637674511054,-0.142749845982,0.195253223181,0.0224342346191,-0.0344395637512,-0.0534191764891,-0.0154346236959
1765470222.9694755,95.63158130645752,0.038168732671016684,-0.0786200773570971,1.1155674877026298,-0.0506475679576,-0.00307962764055,0.0547151565552,-0.0538200139999,0.0429280139506,-0.0145092606544
1765470223.1676943,95.82980012893677,0.03646826686429826,-0.08422116286034609,1.1125380088046102,0.0275150407106,-0.0818397402763,0.0273666381836,-0.00730156945065,-0.0734567716718,-0.00302642583847
1765470223.3666682,96.02877402305603,0.0374837593162699,-0.09859796336665144,1.111407630079926,-0.0372407250106,-0.0149853294715,-0.00838470458984,0.00823810696602,-0.0666380003095,0.00427439808846
1765470223.5688663,96.23097205162048,0.03942513717191041,-0.11755003301382089,1.1106899081661497,0.104584634304,0.186512947083,-0.0603294372559,0.0149630019441,-0.0918000936508,-0.00439435243607
1765470223.7700906,96.43219637870789,0.040366448103955725,-0.1281989239814765,1.104802591102366,0.0420182235539,0.0970247238874,-0.0454053878784,-0.0077486038208,-0.0267818588763,-0.0161096453667
1765470223.9706414,96.63274717330933,0.04158477772363973,-0.12821025906086617,1.1040726852266025,0.0367501303554,0.0205383636057,0.0734949111938,0.00148788082879,0.00876262690872,0.000939518213272
1765470224.1700134,96.83211922645569,0.04173105184651233,-0.12745070887321874,1.1040140291035934,-0.0401585847139,-0.00627310946584,0.0577230453491,-0.00512152910233,-0.00140070926864,0.00872388482094
1765470224.366603,97.02870869636536,0.041181566812223326,-0.1276243469762919,1.1046968636070897,0.017221365124,0.0223008915782,0.0140895843506,-0.00682324264199,0.0102601954713,0.000666827138048
1765470224.5670106,97.22911643981934,0.04146071186754487,-0.11978233625141735,1.1048799559320328,0.048725888133,0.0492938794196,-0.0144329071045,-0.00472515868023,0.0705979764462,0.00166222464759
1765470224.7681541,97.43025994300842,0.03950484058990943,-0.10378982920127454,1.1077480472679935,0.0217129699886,0.0464225411415,-0.0169897079468,-0.0140160322189,0.114699453115,0.023695083335
1765470224.9685922,97.63069796562195,0.038745003280207004,-0.07829057775122704,1.1123626396468285,0.0418449044228,-0.00289699528366,-0.0183448791504,0.0157378613949,0.134807094932,0.0184081494808
1765470225.1711524,97.83325815200806,0.04363991416971866,-0.045156792469978946,1.1180596072716986,-0.0073155798018,0.0211388580501,0.0680675506592,0.0202424824238,0.187519922853,0.0329025126994
1765470225.3705695,98.03267526626587,0.04310987021138723,-0.018518317687595803,1.1221998906603903,-0.050246540457,-0.0366568230093,0.112898826599,-0.0305026751012,0.0961594283581,0.0169225055724
1765470225.5708008,98.23290657997131,0.03476825046601379,-0.023141567420567964,1.1225650100458402,-0.0236625690013,-0.0822761431336,0.0742349624634,-0.0524893514812,-0.137454286218,0.00411048531532
1765470225.769135,98.43124079704285,0.03157970386891616,-0.06370786495838812,1.1224960341736072,0.0293626803905,-0.0265168733895,-0.00277614593506,0.0168450158089,-0.218926340342,0.0131689002737
1765470225.9690113,98.63111710548401,0.040430501289361334,-0.08807298429109016,1.1193758746404703,-0.00477135181427,0.0210565049201,-0.025182723999,0.0413589216769,-0.0457987189293,-0.0267192721367
1765470226.1657944,98.82790017127991,0.044801564231265203,-0.09115161515597857,1.1138153274424394,-0.0209048166871,0.0570979900658,-0.0537042617798,-0.021567940712,0.00972673203796,-0.0190064311028
1765470226.3667758,99.0288815498352,0.03525294994559741,-0.09070574373285047,1.1095135233336344,0.0156869888306,0.00628205016255,-0.0761203765869,-0.0691488459706,-0.0104069719091,-0.0116035342216
1765470226.5667703,99.2288761138916,0.029538153705585837,-0.08849991398096509,1.1062643336456832,0.120099470019,0.167689651251,-0.0319929122925,0.0044189398177,0.0538684427738,-0.00993609521538
1765470226.7685192,99.43062496185303,0.0386190898561059,-0.07039818334747952,1.1027022891086748,0.00975709408522,0.0517448186874,-0.0183591842651,0.0539176166058,0.124353937805,-0.0148192076012
1765470226.9695997,99.63170552253723,0.042599974731177936,-0.04710221084033581,1.0990190707420682,-0.031024094671,0.0143620185554,0.0414562225342,-0.0311866439879,0.0886135026813,-0.022725764662
1765470227.1709776,99.83308339118958,0.03170392785020074,-0.034477986713141166,1.0942259134121435,-0.0104837119579,-0.0277470909059,0.0754890441895,-0.0648886039853,0.0425659157336,-0.0229299068451
1765470227.370576,100.0326817035675,0.02573004348682729,-0.03187314885093467,1.0905976227430196,0.0469970405102,0.028124416247,0.0521926879883,0.00289604067802,-0.00670105265453,0.00706389546394
1765470227.5667899,100.22889566421509,0.03377591503195823,-0.038298990376645976,1.0883070378894424,-0.0136983292177,-0.0261484179646,0.0330276489258,0.0416703484952,-0.0614374876022,-0.0122562050819
1765470227.7660193,100.42812514305115,0.0385872068244306,-0.05414928046338935,1.0831058177014903,-0.0267954319715,0.0401187688112,-0.0042028427124,-0.0148564605042,-0.0842645764351,-0.0219807047397
1765470227.969466,100.63157176971436,0.03138382420955163,-0.06846690053684609,1.0762952492668034,-0.0140704102814,0.0222897864878,-0.0296974182129,-0.0474914945662,-0.0571057237685,-0.0294774770737
1765470228.1703634,100.83246922492981,0.027431845035279956,-0.07893642760508487,1.0686531087817392,0.0332533158362,0.0080852303654,-0.0498371124268,0.00212714099325,-0.0429466441274,-0.0318974293768
1765470228.3678846,101.0299904346466,0.03593028751815624,-0.0826736748523067,1.0606692847288182,0.0193094611168,0.0221490394324,-0.0621089935303,0.0468112528324,-0.000460445968201,-0.0365018881857
1765470228.570362,101.23246788978577,0.04268588664346821,-0.07665076959952437,1.0540723683925828,-0.0227832812816,0.0818956196308,-0.0442457199097,-0.00229775952175,0.0470154099166,-0.00724196527153
1765470228.7699432,101.432049036026,0.0354743834678591,-0.062085987370962256,1.0524796649026609,0.00673227477819,0.02271393314,-0.00148868560791,-0.062687702477,0.0880427733064,-0.00630170106888
1765470228.9693763,101.63148212432861,0.026915447696940584,-0.04627932735301495,1.0510950208729015,0.00748416641727,-0.0387631133199,0.0530738830566,-0.0137984761968,0.05759075284,-0.00499039934948
1765470229.169997,101.83210277557373,0.023771866910373262,-0.043245233696168915,1.0505230404497796,0.0785318166018,-0.0737393945456,0.0659732818604,-0.0785559490323,-0.000880658742972,0.00726953241974
1765470229.3696635,102.03176927566528,0.020758652020354523,-0.05160785912464035,1.0506156518766872,-0.00970696564764,0.0241261795163,0.0599269866943,0.00190660380758,-0.060126196593,0.00728294346482
1765470229.56939,102.23149585723877,0.021938786084341903,-0.06925021943722247,1.0516056820119242,0.0160177238286,-0.00989402178675,0.0026798248291,-0.00312775326893,-0.0847905725241,0.012461095117
1765470229.7699668,102.43207263946533,0.023449880331609677,-0.08492826541927576,1.0526697480254652,0.00915401615202,0.00073267146945,-0.0520162582397,-0.00420957803726,-0.060449551791,0.0102184712887
1765470229.9704654,102.63257122039795,0.026647560739008435,-0.0855487653085074,1.051281442149207,-0.00475666020066,0.0100325793028,-0.0235729217529,-0.00349283241667,0.0308625400066,-0.0137686729431
1765470230.1698678,102.83197355270386,0.025200946199039603,-0.07793473781770043,1.047975527130037,0.000737817026675,0.0166108123958,0.0573091506958,-0.0304222106934,0.0285960752517,-0.0143870711327
1765470230.3709025,103.03300833702087,0.02289315690870162,-0.07527173485281091,1.045278543894114,0.0270243734121,0.0617398172617,-0.00367641448975,0.0211946684867,0.0292100030929,-0.00571608543396
1765470230.5669348,103.22904062271118,0.02731229615006522,-0.07057279516882625,1.043615799267523,0.0132435234264,0.0387917757034,0.00405693054199,0.00386312650517,0.0208191592246,-0.00129640102386
1765470230.7679543,103.43006014823914,0.02770607364555786,-0.0665628152588451,1.0423017955856777,0.00707504805177,0.00562623608857,0.0121383666992,-0.00188052665908,0.020457059145,-0.00683665275574
1765470230.9729085,103.635014295578,0.028320941365202912,-0.06528089434575705,1.0404249328074444,-0.0114498306066,0.00192099250853,0.0268926620483,-0.0127494353801,-0.00679791113362,-0.00440180301666
1765470231.1671455,103.82925128936768,0.025356899247998964,-0.06967022906945239,1.0383664424428678,0.0128163490444,0.0126422848552,-0.000804901123047,-0.0233963131905,-0.0283464789391,-0.0032648446504
1765470231.3686945,104.03080034255981,0.02508868771730896,-0.07635120558878249,1.036428726433726,0.0180814415216,0.0356317982078,0.0206499099731,-0.00662505673245,-0.0445544719696,-0.00227093719877
1765470231.5702653,104.23237109184265,0.026958166465301137,-0.0837084627386138,1.0359485584891848,0.039118014276,0.0402117371559,-0.00442600250244,0.00411942601204,-0.0294432099909,0.00569149898365
1765470231.7675323,104.42963814735413,0.02832179648958418,-0.0848573754000092,1.0355064737482316,0.00218555796891,0.0420840010047,-0.0116147994995,-0.00531375501305,0.0188834983855,-0.00754594895989
1765470231.9701998,104.63230562210083,0.028823261400467693,-0.08042449383130187,1.0339105078859745,0.0271175764501,0.0285785421729,0.00154209136963,0.0160448271781,0.0353537537158,-0.00444948673248
1765470232.166562,104.82866787910461,0.02988156208636775,-0.07600056714175993,1.033391990421736,0.0109484652057,0.0275585092604,0.00624656677246,-0.00333339045756,0.0301353670657,0.00148937117774
1765470232.3683126,105.0304183959961,0.030045987316544925,-0.0719030025214288,1.0331905222852715,0.00500078313053,0.00812516082078,0.0171518325806,-0.00919550657272,0.013888628222,0.00192150485236
1765470232.5700731,105.2321789264679,0.030083383923914523,-0.07225455643007607,1.0329544996336633,0.00924712512642,-0.0251598656178,0.0268621444702,-0.00285506271757,-0.0164330005646,0.00515803741291
1765470232.7708366,105.4329423904419,0.03037068699066903,-0.07765935863860782,1.0323923063275475,0.0223695524037,0.023095170036,0.0244264602661,-0.00133216392715,-0.0322952903807,-0.000394880771637
1765470232.9690719,105.6311776638031,0.03034532662306983,-0.08444457710866851,1.0314935560386729,0.0477001778781,0.0578341074288,-0.0100593566895,0.00543966935948,-0.0159591436386,-0.000543892441783
1765470233.1705906,105.8326964378357,0.029984093788335803,-0.08843617288474971,1.0308298962950253,0.0331097282469,0.0435808673501,-0.0191555023193,-0.00464320229366,-0.000718235969543,0.00168457627296
1765470233.3692417,106.03134751319885,0.03011149483757707,-0.08706419551492496,1.0304015934127133,0.0180773902684,0.035513844341,-0.015664100647,-0.00513941096142,0.0182397663593,0.002061575884
1765470233.5670319,106.22913765907288,0.02975657452686437,-0.0832341703932275,1.0307630509516643,0.0342237986624,0.00867638736963,-0.00755882263184,-0.000810623227153,0.0232763607055,0.00467076897621
1765470233.7677286,106.42983436584473,0.02988461015745913,-0.08030805543501657,1.0314159248928971,0.0515393912792,-0.00763719435781,0.0251741409302,0.00218078540638,0.00686571141705,0.00471696257591
1765470233.9699235,106.63202929496765,0.03073234218610719,-0.08030494286549253,1.0317179273605122,0.027643982321,-0.00368589535356,0.0153617858887,-0.00310540222563,-0.0065550217405,0.00698193907738
1765470234.1697438,106.83184957504272,0.031134030102275202,-0.08301258706815451,1.0315412266221855,0.00978170428425,0.0114135444164,0.0105514526367,-0.00892281532288,-0.0154197225347,0.0059612095356
1765470234.3699765,107.03208231925964,0.031018230448532594,-0.08784211319171552,1.0309704446215542,0.0289379619062,0.0219105035067,0.0161809921265,0.000383704929845,-0.0290170367807,0.00248476862907
1765470234.5683448,107.23045063018799,0.03172660008957465,-0.0945657127720545,1.0302391405862183,-0.00300989486277,0.00374165829271,-0.0023717880249,0.000465661316412,-0.0389948412776,0.00382736301981
1765470234.7694688,107.43157458305359,0.03280912721901602,-0.10126686689783117,1.030118033335647,0.0244801398367,0.0239110551775,-0.011739730835,-0.00966638326645,-0.0233009476215,0.00872835610062
1765470234.9673197,107.62942552566528,0.03399767104638317,-0.10507707643654275,1.0297760168726535,0.0174188762903,0.0441315099597,-0.00207805633545,-0.00792443845421,-0.00554621219635,0.00347718619741
1765470235.1670253,107.82913112640381,0.033720777194420584,-0.10462011960537718,1.028706291641796,0.00701923854649,0.052360214293,0.000863075256348,-0.0171989221126,-0.00257343123667,-0.000280141830444
1765470235.367562,108.02966785430908,0.03330847200400048,-0.10260867564593237,1.0279044138375732,0.0702157616615,0.0659791305661,0.0314340591431,-0.00849217083305,0.0178821384907,0.00270530558191
1765470235.5670452,108.2291510105133,0.03352798929863406,-0.0954920184558329,1.0280611408677243,0.0348306261003,0.102319449186,-0.0251359939575,-0.00928342528641,0.0613801293075,0.00875815842301
1765470235.771255,108.43336081504822,0.03392497507100241,-0.07709660773313885,1.030605791289295,0.0803905799985,0.0764738544822,-0.0336275100708,0.0197194535285,0.140880793333,0.0209249574691
1765470235.9663928,108.62849855422974,0.04192175498650802,-0.04231349349929107,1.0362578846497974,-0.00112400157377,-0.0130154658109,0.0505475997925,0.0346042215824,0.186852395535,0.0354968048632
1765470236.1695483,108.83165407180786,0.04509788667561775,-0.014238234986431769,1.0442110157711557,0.00357327237725,-0.148497566581,0.256591796875,-0.0331446528435,0.0349335409701,0.0370211899281
1765470236.3702374,109.03234314918518,0.03433198930935058,-0.03255621846162096,1.0402350494217218,0.0275770500302,-0.00868684146553,0.0790863037109,-0.0670894980431,-0.123198352754,-0.00927746389061
1765470236.569476,109.23158168792725,0.03044084880182501,-0.05960214856840782,1.0368891869862007,0.041565194726,-0.0146120553836,-0.00113105773926,-0.000685453473125,-0.134347379208,0.00394806312397
1765470236.7684772,109.4305830001831,0.04000774527225728,-0.08190124162288603,1.0336313420247067,-0.00647332053632,0.0243998598307,-0.070333480835,0.041086230427,-0.0840485170484,-0.0146999955177
1765470236.9748864,109.63699221611023,0.045372383682599264,-0.1010299620741118,1.0295466521237706,0.0252851992846,0.0412640869617,-0.111096382141,-0.0056609516032,-0.091490149498,-0.015385449864
1765470237.1659966,109.82810235023499,0.038533868701223356,-0.10492637480835788,1.026208313118329,0.0560177490115,0.0561606362462,-0.0550088882446,-0.0467583537102,0.0331454016268,-0.0234112162143
1765470237.367624,110.02972984313965,0.034372590032406676,-0.08247952208646152,1.022019893092934,0.0490640997887,0.020138733089,-0.0603542327881,0.000108033418655,0.165753826499,-0.0185638666153
1765470237.5713117,110.23341751098633,0.039131065930916815,-0.047113000803939833,1.019097007217545,0.0181512199342,-0.0414907000959,0.0290899276733,0.0075601041317,0.150977820158,-0.011391938664
1765470237.7707424,110.43284821510315,0.04061633583798922,-0.027772906505351237,1.0169171432862878,-0.0312456972897,-0.0346962958574,0.0715017318726,-0.0146716833115,0.0506319142878,-0.00661164522171
1765470237.9676766,110.6297824382782,0.03501363579332937,-0.02687462018907291,1.0145659715179114,0.139369413257,0.145694747567,0.0622119903564,-0.0496461987495,0.0160299260169,-0.0141426930204
1765470238.1668656,110.82897138595581,0.03275201905839063,-0.028553456134312843,1.0087270574069398,0.0301294028759,-0.0291558336467,0.086181640625,0.00767335435376,-0.0494986847043,-0.0189200062305
1765470238.370343,111.03244876861572,0.039165416547789635,-0.04573854752653914,1.0040151264902626,0.0251215938479,-0.00553224235773,0.0180692672729,0.0280119497329,-0.112575300038,-0.0127613544464
1765470238.568821,111.23092675209045,0.042118600041767706,-0.06762857071520277,0.9999473476622484,0.0112657546997,0.0377124622464,-0.00436878204346,-0.0119134783745,-0.091245777905,-0.00925064086914
1765470238.7697873,111.43189311027527,0.037456478559853394,-0.07935001652237418,0.9960093313583482,0.141019657254,0.170492723584,-0.0446043014526,-0.032864511013,-0.0336244739592,-0.0233173426241
1765470238.9719849,111.63409066200256,0.03462667432575165,-0.08151078059518838,0.9908949302219328,0.0349386371672,0.00444909092039,-0.0578002929688,-0.00957101676613,0.00335797667503,-0.0196784753352
1765470239.1669097,111.82901549339294,0.03740599917362879,-0.07890369569081213,0.9864059724675225,0.0379236862063,0.0194731876254,-0.0453004837036,0.00999495293945,0.0248856861144,-0.0195547901094
1765470239.3701637,112.03226947784424,0.04015897953266015,-0.07011042046931806,0.9823790731622409,0.0225418955088,0.0434791222215,-0.00667095184326,-0.00588893936947,0.0698126852512,-0.0122696170583
1765470239.567738,112.22984385490417,0.038342453997873914,-0.05242748440081507,0.9790052475352741,0.0227151084691,-0.00479579903185,0.0281534194946,-0.0231653470546,0.092227011919,-0.0134497880936
1765470239.7716415,112.43374729156494,0.035260406796649636,-0.044202053380374744,0.9763787714892106,-0.000981043558568,-0.0181885436177,0.0603532791138,-0.00872761104256,0.0168032944202,0.00127330434043
1765470239.968556,112.63066172599792,0.03272651512976392,-0.046986604681891156,0.9746879305131193,0.0667767450213,-0.0303944107145,0.0911464691162,-0.0154867786914,-0.048109896481,-0.00485330959782
1765470240.1672773,112.82938313484192,0.038076171178379616,-0.06458959598342133,0.9708021121665847,0.027979247272,-0.0226718373597,0.000424385070801,0.030409546569,-0.1235216856,-0.0163063425571
1765470240.3684695,113.03057527542114,0.03388720811779372,-0.08463695720791312,0.9655422358556237,0.0663356408477,0.0189090613276,-0.0470714569092,-0.0287935193628,-0.0568926408887,-0.0217780470848
1765470240.5695176,113.23162341117859,0.03341940098578069,-0.08617849471539185,0.9596827488252314,0.0537861585617,0.0271763186902,-0.0609226226807,0.0237204134464,0.0416748262942,-0.0265061855316
1765470240.7692642,113.43137001991272,0.031870987113143574,-0.07645485248945702,0.9549598323690576,0.0504482313991,0.0185973718762,-0.000150680541992,-0.0258922595531,0.0437431074679,-0.0180259346962
1765470240.9679277,113.63003349304199,0.03316804851314765,-0.06952977228908593,0.9523808937484521,0.0261274632066,0.00374445226043,-0.0316486358643,0.0419504866004,0.0440366603434,-0.00967979431152
1765470241.170908,113.83301377296448,0.030032498821742592,-0.06915774116836947,0.9504333240432772,0.0577937364578,0.00833179801702,0.0366973876953,-0.019104776904,0.00291541172192,-0.0120729207993
1765470241.3667624,114.02886819839478,0.029880808911121964,-0.0724944989219138,0.9516306146903495,0.0411632247269,-0.00942987389863,0.0164670944214,-0.0116050262004,-0.027160352096,0.013709815219
1765470241.5673172,114.22942304611206,0.02934659128001968,-0.08037672337924857,0.9532360347744766,0.04470955953,-0.0124694313854,0.0195808410645,0.00309571623802,-0.0484719872475,0.0174008328468
1765470241.7700844,114.43219017982483,0.029198713018709223,-0.08938418333141226,0.9557385406717968,0.0414148904383,0.0275671258569,-0.0118293762207,-0.0110194096342,-0.05943775177,0.0168778020889
1765470241.9708772,114.63298296928406,0.02927183135479411,-0.09737632144036165,0.9581236677440718,0.0718116089702,0.0280999802053,0.0176191329956,0.0036396086216,-0.0280678290874,0.012639910914
1765470242.1679835,114.83008933067322,0.0322722984416887,-0.10387649844999981,0.9603563954229669,0.0595349371433,0.0368114113808,0.010326385498,-0.0113472351804,-0.00719428062439,0.0222690422088
1765470242.3672159,115.02932167053223,0.0319259585031131,-0.10410722806894154,0.9610544099446767,0.0914537832141,0.0341354161501,0.000785827636719,-0.0069290404208,0.0104703018442,-0.00470727682114
1765470242.567318,115.2294237613678,0.032244611969324884,-0.09842309355157411,0.9599707696971235,0.0903716087341,0.0566257871687,-0.000398635864258,-0.0103965410963,0.0428311526775,0.000288337498205
1765470242.771091,115.4331967830658,0.032737084550340176,-0.08876416614012819,0.9593867384700691,0.0589851737022,0.0214283820242,0.0206937789917,-0.00497549772263,0.0504963137209,-0.00111460697372
1765470242.9699194,115.6320252418518,0.03196287865431892,-0.08126338125229843,0.9583508353850555,0.0442908629775,-0.0109275337309,0.0276823043823,-0.00806451030076,0.0228442307562,-0.00323653267696
1765470243.169409,115.83151483535767,0.03189263569997348,-0.08039359284027855,0.9576301174150528,0.0413663238287,0.0250044986606,0.021146774292,0.000447779981187,-0.00853240583092,0.0139601528645
1765470243.370304,116.03240990638733,0.032730934312697774,-0.0849816118648614,0.9593463915795544,0.0299092382193,0.00585664529353,0.023645401001,-0.00414997385815,-0.0331401824951,0.0160746295005
1765470243.5683022,116.23040795326233,0.03343368426772084,-0.09191788982537843,0.9609034087108692,0.0466324165463,0.00680685043335,0.0177488327026,-0.000394880800741,-0.0348940491676,0.015627592802
1765470243.7677906,116.4298963546753,0.034328242158473056,-0.09940836328636256,0.9617789229192327,0.0394455380738,0.0215051472187,-0.000748634338379,-0.00120401382446,-0.0380933322012,0.00793859362602
1765470243.9690568,116.63116264343262,0.0350595337102412,-0.10312113441869086,0.9610888313017659,0.0210596714169,0.0251968856901,-0.0616149902344,-0.0152468690649,0.00933781359345,-0.00592470169067
1765470244.170243,116.83234882354736,0.034932205481810995,-0.10014030814483561,0.9592067753594069,0.0758529901505,0.0344421267509,0.00308036804199,-0.00584125565365,0.0126414000988,0.00052824622253
1765470244.3677182,117.0298240184784,0.03600603780641218,-0.09994878525056689,0.9587387913768528,0.0240462366492,0.0113545684144,0.00221347808838,-0.00271797180176,-0.0130727915093,-0.000809133227449
1765470244.5704415,117.23254728317261,0.03680771587355328,-0.1016495048898267,0.9585435150899227,0.0499476455152,-0.00234872568399,0.020281791687,0.00322386692278,0.00552758574486,0.00456348108128
1765470244.768989,117.43109488487244,0.03710178295335767,-0.1028399212523353,0.9588307370134878,0.0719884857535,0.0132013345137,0.000617027282715,-0.00449866056442,-0.0034362077713,0.00635460065678
1765470244.9701686,117.63227438926697,0.03819267615369218,-0.1025111207262514,0.9586607607569134,0.0821064710617,0.0395298451185,-0.00393390655518,0.000569969415665,0.00953897926956,0.00342205213383
1765470245.1665418,117.82864761352539,0.039046801849551026,-0.09857310442235123,0.9579680059783566,0.0557992830873,0.0369063578546,-0.0133504867554,-0.00910163018852,0.0217743217945,0.00312551856041
1765470245.3681157,118.03022146224976,0.039080815410098384,-0.09238145462499876,0.957190762414217,0.0555127635598,0.0217682216316,-0.00132179260254,-0.00801086425781,0.0419117547572,0.000197440385818
1765470245.5681689,118.23027467727661,0.038390561506252675,-0.08543662958185826,0.9563712411677723,0.0397296622396,0.0016703736037,0.0322799682617,-0.0113308439031,0.028375538066,0.000978261232376
1765470245.7676373,118.42974305152893,0.03779025586822439,-0.08343136082719106,0.9561698396103351,0.0506426431239,-0.0185565315187,0.0258703231812,-0.00725388666615,-0.00382065819576,0.00775978108868
1765470245.9710321,118.63313794136047,0.03795748157873535,-0.08775369624352489,0.9567597963708149,0.0523391664028,0.0107558444142,0.00712108612061,-0.00968724582344,-0.0275328755379,0.0109858810902
1765470246.1706388,118.83274459838867,0.037901397070653965,-0.09285371631005387,0.9578945693112977,0.0625217109919,0.0289033874869,-0.015064239502,-0.00355392694473,-0.0151991872117,0.0125102717429
1765470246.3692496,119.03135538101196,0.03760148768120821,-0.0953736492677573,0.9585774703938212,0.0726793631911,0.0142205506563,-0.000920295715332,-0.0112980585545,-0.00894665718079,0.00862702634186
1765470246.5743444,119.2364501953125,0.03792774155949973,-0.09774275576159974,0.9585633556400438,0.0360270515084,0.0152845168486,0.0239524841309,-0.00360906147398,-0.000718235969543,0.00744089530781
1765470246.76795,119.43005585670471,0.03890875023654405,-0.09920225126274723,0.9583806627892644,0.0667677745223,0.0213326662779,-0.011625289917,-0.00754892872646,-0.00408440828323,0.00499710440636
1765470246.9685073,119.63061308860779,0.03938112843489685,-0.0976916064239134,0.9577640078388565,0.0558031275868,0.0470820814371,0.00163269042969,-0.00763684650883,0.0118814408779,0.000909716065507
1765470247.1709666,119.83307242393494,0.03909742687739775,-0.0937239541305077,0.9572196577120443,0.0522602573037,0.00457912683487,-0.00113487243652,-0.00861436221749,0.0291846748441,0.00283494591713
1765470247.3690536,120.03115940093994,0.03868337190691768,-0.08967556644418057,0.956853606220213,0.0290928408504,0.00527552329004,0.0226202011108,-0.00938028190285,0.00900104641914,0.00734105752781
1765470247.5701,120.23220586776733,0.038296676755448976,-0.08924301082650285,0.9570701877958636,0.062239125371,-0.00963474158198,0.0168581008911,-0.00639408826828,-0.0128686437383,0.0114284446463
1765470247.766632,120.42873787879944,0.03805723776750483,-0.09119411754250056,0.957848163729303,0.066517598927,0.0116223236546,0.00233554840088,-0.0059589757584,-0.0109523553401,0.00729188462719
1765470247.9681816,120.63028740882874,0.03783261261312426,-0.09358196603251445,0.9580924421802905,0.0427996516228,0.0159659199417,-0.00680828094482,-0.0060468907468,-0.0144675383344,0.00497773196548
1765470248.1679418,120.83004760742188,0.03790215440708895,-0.09580932577733743,0.9581985691497302,0.0392533838749,0.0148638384417,-0.0177640914917,-0.0124663114548,-0.0192731637508,0.00926777720451
1765470248.369826,121.03193187713623,0.03823411327577813,-0.09781907197158733,0.9585375895564973,0.0557297132909,0.0261181034148,0.00171566009521,-0.00298470281996,-0.00618547201157,0.00673308968544
