timestamp_abs,timestamp_rel,roll,pitch,yaw,acc_x,acc_y,acc_z,gyr_x,gyr_y,gyr_z
1765456145.9481616,0.1402289867401123,-0.07136194805646558,0.03687573467226959,-1.3220660025711475,0.0283371433616,0.108185477555,-0.133729934692,-0.209631025791,0.00259801768698,-0.0728771090508
1765456146.1458063,0.3378736972808838,-0.0862615437295103,0.037503766313959117,-1.34915261454418,0.130613982677,0.0746389999986,0.203741073608,0.0712297931314,0.0268496610224,-0.179120898247
1765456146.3447423,0.5368096828460693,-0.1077856028113158,0.04031392141264312,-1.3934351245177994,-0.0938835069537,-0.0441142581403,0.191060066223,-0.1206696257,0.0317551195621,-0.231917247176
1765456146.5449975,0.7370648384094238,-0.07289072735784716,0.039348354908732064,-1.4424426148974376,0.587984204292,0.0884539112449,-0.256321907043,0.102414950728,-0.0241637267172,-0.227658495307
1765456146.7458,0.9378674030303955,-0.09356822578576532,0.03195589825943047,-1.4828924365882696,-0.369171649218,-0.0558731146157,0.26175403595,0.107415765524,0.00688955234364,-0.171445310116
1765456146.9436085,1.1356759071350098,-0.04633622745418018,0.03632905011831437,-1.5085304220863536,0.381901979446,0.0398881584406,-0.0534944534302,-0.0518932975829,0.031716376543,-0.064492225647
1765456147.1443639,1.3364312648773193,-0.06166024778119946,0.037408637367583646,-1.5111014378027159,-0.421356320381,-0.0769394561648,0.340770721436,0.19180701673,-0.00292062805966,0.0430189110339
1765456147.344888,1.5369553565979004,-0.04124905713991082,0.03333221366899961,-1.493338286489942,-0.0653472468257,-0.0376364178956,-0.167415618896,-0.172436222434,-0.0710189267993,0.13718304038
1765456147.5441155,1.7361829280853271,-0.05052118120896874,0.03015567626394256,-1.4614312197858117,-0.0835692733526,-0.132916897535,-0.237728118896,0.0646285787225,0.0447936430573,0.19124378264
1765456147.7467418,1.9388091564178467,-0.07774369762137927,0.040864255329529586,-1.4221381421144554,-0.234415352345,0.018958363682,0.0480518341064,-0.231866553426,-0.0302881002426,0.202491164207
1765456147.945581,2.137648344039917,-0.07343375422649272,0.026671939065955667,-1.3865476573066366,0.253334701061,-0.00679383520037,-0.281957626343,0.0485137104988,-0.0885635539889,0.150164961815
1765456148.1461315,2.3381989002227783,-0.09607554201780448,0.030912584096445914,-1.3636660435367847,-0.092413932085,-0.034411881119,-0.228439331055,-0.0747427493334,0.0925503820181,0.0888966247439
1765456148.3437986,2.5358660221099854,-0.07906230357848315,0.031024944527312037,-1.3581903180194728,0.284678697586,0.0394284613431,0.0375461578369,0.0521309711039,-0.0794783234596,-0.00637024687603
1765456148.5428784,2.734945774078369,-0.07897528478986482,0.014366891674515117,-1.3664880621858873,-0.169559150934,-0.28605940938,-0.247992515564,0.119181737304,-0.0165507253259,-0.0691637471318
1765456148.7436283,2.9356956481933594,-0.052508057507357576,0.02080962242690512,-1.3859927876935185,0.0820066183805,0.0372655689716,0.0348262786865,-0.0560730732977,0.020707398653,-0.106340654194
1765456148.9441643,3.1362316608428955,-0.05865863636727398,0.015086080407485616,-1.4120793826772262,-0.3109151721,0.00355179654434,0.0919332504272,0.127328187227,-0.0245422124863,-0.138032451272
1765456149.1439445,3.3360118865966797,-0.056888782730591385,0.01881574700827642,-1.438704202517239,-0.0422867015004,0.100418508053,-0.185712814331,-0.19265858829,0.0151924770325,-0.116398908198
1765456149.343475,3.5355424880981445,-0.07186387902053985,0.014708363021722917,-1.458755808154718,0.0300773773342,0.103096872568,-0.10099697113,0.0406630374491,-0.0514060258865,-0.0781014412642
1765456149.5440876,3.7361550331115723,-0.09211698608399708,0.009485405821670442,-1.467412280119966,0.124015942216,0.0820798575878,0.0820074081421,-0.195659697056,0.0117562720552,-0.00286847352982
1765456149.7441041,3.936171531677246,-0.09183961785646533,0.01259192601689633,-1.4639289985721968,0.326705396175,0.121572099626,-0.00879669189453,0.0742361024022,-0.000384449987905,0.050276517868
1765456149.9436092,4.135676622390747,-0.10314291408298067,0.007833486528791721,-1.4521405160069611,0.101992279291,0.0382620841265,-0.0784368515015,-0.102140009403,-0.0411435998976,0.0611282885075
1765456150.145074,4.337141275405884,-0.10370593962693704,-6.041303479459777e-05,-1.4376778202331224,0.127708688378,0.0402276627719,0.374795913696,0.0155873605981,-0.0293970145285,0.0817365944386
1765456150.3445902,4.5366575717926025,-0.10404903799912332,-0.00915550049985307,-1.4241771914030747,-0.157468065619,-0.0884484946728,-0.0979642868042,0.0737242400646,-0.0642970278859,0.0492431297898
1765456150.544197,4.73626446723938,-0.06988373552628188,-0.012481299761630659,-1.4151557332104312,0.32151389122,-0.114253140986,-0.106486320496,0.0453405082226,0.0385068356991,0.0644333735108
1765456150.7430487,4.9351160526275635,-0.08984060753035981,0.005071758309757828,-1.397736529152441,-0.286265790462,-0.0603283755481,0.240598678589,-0.0409752167761,0.0775136053562,0.114206232131
1765456150.9444013,5.1364686489105225,-0.04032994615226483,0.012711234593434578,-1.3839227125781999,0.0736957043409,-0.0121021876112,-0.187187194824,0.317647337914,-0.00869929883629,0.0468336082995
1765456151.1442945,5.336361885070801,-0.034504614162852755,0.012259032961231025,-1.3754907450928455,-0.0275217927992,-0.0431501492858,-0.105941772461,-0.200483232737,0.0313840918243,0.0470422282815
1765456151.3430612,5.535128593444824,-0.04432147951050798,0.0172957540578975,-1.3711212966923525,-0.225639626384,0.0182041600347,0.245761871338,0.143275395036,-0.060907009989,0.00239685177803
1765456151.5440392,5.736106634140015,-0.022577360098877862,-0.004400302057989145,-1.378228741009556,0.13120803237,-0.0976171717048,-0.235298156738,-0.0491082668304,-0.0734284594655,-0.0609994009137
1765456151.744017,5.936084270477295,-0.040270744913470206,-0.0015422224132141632,-1.3915915512531922,-0.239331096411,0.132220476866,0.163734436035,-0.023186204955,0.0508457422256,-0.0534608960152
1765456151.944388,6.136455297470093,-0.0221110530755726,6.418396621823408e-05,-1.4071703778398832,0.0519587434828,-0.00871191173792,-0.274367332458,0.0879906192422,-0.0254169106483,-0.103014715016
1765456152.1441681,6.336235523223877,-0.027062502042788796,0.006553851669022209,-1.4308984773622166,0.0704134553671,0.00287734437734,-0.147696495056,-0.12118370086,0.0935636535287,-0.100646927953
1765456152.3440151,6.53608250617981,-0.043979051089783436,0.021207436275924908,-1.4517896445333431,-0.0861833095551,0.0730792135,0.244211196899,-0.00012516976858,0.0376403331757,-0.105547912419
1765456152.5436053,6.73567271232605,-0.02336948823679751,0.009622974736729848,-1.4794572250981763,-0.0453704111278,0.0214481316507,0.13311290741,0.177044466138,-0.111740842462,-0.146071612835
1765456152.743569,6.935636281967163,0.014983993952762314,-0.023622116113921347,-1.5072486426536984,0.114015907049,0.052490092814,-0.102875709534,0.122853390872,-0.176304608583,-0.122830294073
1765456152.9433498,7.135417222976685,0.015139868979424112,-0.06918074838347422,-1.5366211789484003,0.0760622099042,0.0930179804564,-0.139897346497,-0.108806811273,-0.285893768072,-0.140523940325
1765456153.144096,7.336163282394409,0.003921617317324491,-0.13898621610203218,-1.5645160603122716,0.00134671572596,0.0998207628727,-0.276398658752,-0.00671744393185,-0.409796833992,-0.128386929631
1765456153.3456588,7.537726163864136,0.01646253521689307,-0.20319353195572945,-1.5956389592334284,0.0790447443724,-0.31068405509,-0.533630371094,0.0126279890537,-0.0999599769711,-0.162656620145
1765456153.5437791,7.735846519470215,0.011003502310069982,-0.14128728715240152,-1.6279092811102454,0.0949591621757,-0.236852303147,-0.153247833252,-0.139699906111,0.664218604565,-0.150044292212
1765456153.7463422,7.9384095668792725,-0.03932647121471217,-0.017310109120351407,-1.6535643108393057,-0.0033006479498,0.367263883352,0.592928886414,-0.275023341179,0.523313164711,-0.0957474336028
1765456153.9441974,8.13626480102539,-0.05722380423453415,0.005421212378303411,-1.6775633870025548,-0.0806485563517,0.387142837048,0.613059043884,0.0996224582195,-0.277845591307,-0.12993812561
1765456154.1446087,8.336676120758057,-0.006566506885686589,-0.08840096090171183,-1.7008109191061835,0.0205217152834,-0.077660523355,-0.110455513,0.296474277973,-0.459878236055,-0.115552566946
1765456154.3451018,8.537169218063354,0.03359276861155564,-0.15434969282507668,-1.723669496532606,0.15538790822,-0.157009646297,-0.30881023407,0.0166736543179,-0.194147214293,-0.0946894139051
1765456154.544956,8.73702335357666,0.011522883221068083,-0.15654105828329157,-1.7433718285931212,0.0311111565679,-0.115313962102,-0.373197555542,-0.215487211943,0.125182420015,-0.086203224957
1765456154.7457812,8.937848567962646,-0.021994131981339714,-0.11574196301549566,-1.7622341996458255,-0.11927638948,-0.0715574920177,-0.256164550781,-0.110973440111,0.241268455982,-0.0888228490949
1765456154.9456296,9.137696981430054,-0.016802359773473687,-0.056813823068284065,-1.7845541527417796,-0.024279370904,-0.00445790356025,-0.0288333892822,0.0979341566563,0.260775536299,-0.107531256974
1765456155.145026,9.337093353271484,0.0007559412662737316,-0.01813443550002849,-1.8077433616175356,0.0613779053092,0.0615508817136,0.100526809692,0.0265039559454,0.101492553949,-0.104083143175
1765456155.3444254,9.536492824554443,-0.0023228423922807377,0.00018097787191511086,-1.830197937506593,0.00884292088449,0.0411026775837,0.0252571105957,-0.0602766871452,0.0923715531826,-0.110235832632
1765456155.5449362,9.737003564834595,-0.012048923075088685,0.0033781540439612374,-1.8538187116369964,0.0609958209097,0.15793633461,0.280508041382,-0.0558838360012,-0.105053201318,-0.114995263517
1765456155.744929,9.936996459960938,-0.023435607452642532,-0.03591957661714707,-1.8772135165489066,-0.0719987750053,-0.0693341717124,0.150004386902,-0.0430256202817,-0.157794371247,-0.110387824476
1765456155.945341,10.13740849494934,-0.01473466173748745,-0.04231951890125737,-1.9003904748836482,0.0273085199296,-0.0132154906169,0.16898059845,0.0635005608201,0.0399373471737,-0.105121739209
1765456156.1469579,10.339025259017944,0.0007539755595052656,-0.03267024960995219,-1.9232020475168308,0.0396802164614,0.0437746010721,-0.148065567017,0.0757448449731,-0.00122487556655,-0.11295825243
1765456156.3452861,10.537353515625,-0.0010983627950286615,-0.017869482180484633,-1.946076071277576,0.214429289103,-0.0185281857848,0.674172401428,-0.198528200388,0.155008628964,-0.102600470185
1765456156.5449471,10.737014532089233,-0.05635478148132767,-0.025850114601287034,-1.9637244403473675,-0.0519423633814,0.236046180129,0.215532302856,-0.183296218514,-0.257283449173,-0.0763699412346
1765456156.7442722,10.936339616775513,-0.03392562005532891,-0.10167009445400438,-1.975506265009878,-0.134689360857,0.0946328639984,-0.383211135864,0.346773177385,-0.397144317627,-0.0679165348411
1765456156.9440942,11.13616156578064,0.051048537039074866,-0.1655185743179487,-1.9884010246919328,0.108237586915,-0.168829083443,-0.452776908875,0.326250523329,-0.182351484895,-0.0468328595161
1765456157.1454756,11.33754301071167,0.06318310154915562,-0.16269257757196792,-1.9978435286529177,0.0879737585783,-0.422307282686,-0.353747367859,-0.25786164403,0.286444246769,-0.0372841991484
1765456157.3467658,11.538833141326904,-0.01772794765211453,-0.06414222653218005,-2.0029695811191024,-0.156483769417,-0.0934973806143,-0.119313240051,-0.417809277773,0.649464845657,-0.0161379575729
1765456157.545991,11.73805832862854,-0.058455782554804804,0.059292139972765785,-2.0100736964849433,0.0813508629799,0.445567578077,1.27811336517,-0.0309407729656,0.292395830154,-0.00380724738352
1765456157.7467554,11.938822746276855,-0.01920745015095124,0.04245982171762331,-2.0124261998338646,-0.0758634731174,-0.026690505445,0.295468330383,0.364296853542,-0.177113682032,0.00227019214071
1765456157.9461133,12.13818073272705,0.044055579520420385,-0.005198488887388722,-2.0117524200780745,0.181391000748,0.134680703282,-0.292561531067,0.213185712695,-0.437334179878,0.0221498329192
1765456158.1447928,12.336860179901123,0.037534030643034344,-0.09876324580180448,-2.01660296852949,0.112852290273,-0.177611231804,-0.305819511414,-0.312379091978,-0.346981048584,-0.0171691216528
1765456158.344816,12.536883354187012,-0.042020953575924266,-0.12255743333106398,-2.0255694324456237,-0.202506870031,-0.0321688838303,-0.140873908997,-0.349943339825,0.0846751108766,-0.038281083107
1765456158.5451868,12.73725414276123,-0.04225198280048864,-0.06260948161748776,-2.0352428324731187,-0.156675949693,0.190211623907,0.181875228882,0.315880060196,0.461902558804,-0.0105038313195
1765456158.7446868,12.93675422668457,0.0331615924280988,-0.014658603521230468,-2.0408535802576973,0.282743036747,0.150752410293,0.431168556213,0.235051676631,-0.0144749879837,-0.0178709644824
1765456158.9439397,13.136007070541382,0.0161000977178847,-0.04816866121529043,-2.044470153018025,0.190860629082,0.0471504740417,0.222919464111,-0.334215193987,-0.220762193203,0.00123307108879
1765456159.1468093,13.338876724243164,-0.04576718899182511,-0.10253572999919941,-2.0440271361706905,-0.206025436521,-0.00978917814791,-0.0830678939819,-0.156702145934,-0.226087898016,0.00397041486576
1765456159.3451424,13.537209749221802,-0.020872117246954112,-0.12039973189350336,-2.0435846519555736,-0.164877548814,-0.0887683108449,-0.137477874756,0.315970927477,0.0428698994219,0.00311061739922
1765456159.5457516,13.737818956375122,0.03474183523695156,-0.10293156728334767,-2.042652811890155,0.170288681984,-0.139883086085,-0.0381708145142,0.116202995181,0.0873319879174,0.0205598771572
1765456159.7458177,13.937885046005249,0.0062719342213940045,-0.09323541387328949,-2.0353086125520434,0.0956011712551,-0.0928457379341,0.0103607177734,-0.344732433558,0.00118091702461,0.0620700493455
1765456159.9456332,14.13770055770874,-0.05682197067674402,-0.0969745752675448,-2.0233010849871484,-0.192536219954,-0.0123577425256,-0.0172538757324,-0.172822207212,-0.00868737790734,0.0657208263874
1765456160.1453269,14.33739423751831,-0.03923229101947505,-0.08962477496876571,-2.012296503888778,-0.0866874009371,-0.0451002269983,0.101411819458,0.274182111025,0.0580661036074,0.0632785260677
1765456160.3439317,14.535999059677124,0.009586530001390495,-0.081497997421956,-1.9983224981749685,0.222914949059,-0.0545826144516,0.12885761261,0.114908069372,-0.00773221394047,0.0934861600399
1765456160.5443451,14.736412525177002,-0.019241725866418397,-0.1106275285895666,-1.9750565902598183,0.10791233182,-0.0837125107646,0.0458898544312,-0.313177704811,-0.216725483537,0.143074259162
1765456160.7459567,14.938024044036865,-0.07482029575852885,-0.14601386545507417,-1.9448133334467148,-0.153845995665,-0.0986556559801,-0.020414352417,-0.111910700798,-0.09934604913,0.147130310535
1765456160.9465625,15.138629913330078,-0.06529002815605818,-0.14603074323848253,-1.9154742198236934,0.0365240722895,-0.190990701318,0.117775917053,0.163502261043,0.0471912361681,0.159663707018
1765456161.1455245,15.337591886520386,-0.0517194747026391,-0.1339451101522428,-1.8805765563734587,0.178663641214,-0.217148095369,0.0811996459961,-0.0351443886757,0.0451020933688,0.205380469561
1765456161.3448358,15.536903142929077,-0.08504807437881569,-0.12651120389728765,-1.836759300642276,0.0967728644609,-0.135230645537,0.164905548096,-0.199754580855,-0.0198274850845,0.236132025719
1765456161.545942,15.738009452819824,-0.11015277019098955,-0.13535596967398272,-1.7900694262012793,-0.12350012362,-0.185540735722,0.0159397125244,0.0667087808251,-0.0680491328239,0.217113658786
1765456161.7450058,15.937073230743408,-0.06048851931940265,-0.13460719696637172,-1.752582238065106,-0.0246113054454,-0.131450176239,-0.169134140015,0.368624150753,0.0479973852634,0.172402724624
1765456161.9460769,16.13814425468445,-0.014703389360327734,-0.12126065697252032,-1.720198598683906,0.223305359483,-0.133050650358,-0.0947360992432,0.0431247092783,0.0475131049752,0.177329048514
1765456162.1459215,16.33798885345459,-0.04359707472687121,-0.11565163192027153,-1.6876019064154995,-0.054786387831,-0.0717120021582,-0.15207862854,-0.211706787348,0.0250227805227,0.142519935966
1765456162.3449504,16.537017822265625,-0.06356452447390382,-0.11016300671642953,-1.6700234453243223,-0.156588315964,-0.0354943796992,-0.145148277283,0.0494755841792,0.0176183879375,0.0457353852689
1765456162.5456374,16.737704753875732,-0.034578610509859525,-0.10715675557654245,-1.668987342502227,0.0642206966877,-0.0357554294169,-0.0475511550903,0.142344102263,-0.00674426695332,-0.0124767422676
1765456162.7442613,16.936328649520874,-0.031984731139419784,-0.11192648541125276,-1.6732767629119631,0.0508060567081,-0.0662962943316,-0.112645149231,-0.120034813881,-0.00848025176674,-0.0286862254143
1765456162.9483392,17.140406608581543,-0.06286013084914546,-0.10529740308247637,-1.6858261106006347,-0.0678091272712,-0.0247953683138,-0.00950527191162,-0.164858996868,0.0814117565751,-0.0712707713246
1765456163.1454272,17.337494611740112,-0.07632628838783344,-0.09397605561719732,-1.705517390542626,-0.0171925015748,0.116226308048,0.201845169067,0.00554546760395,-0.000189244747162,-0.0947967246175
1765456163.345548,17.537615299224854,-0.06070327829418232,-0.11414159461506139,-1.7241942724254062,-0.0698493123055,0.00712089240551,-0.0143184661865,0.112283997238,-0.0955209359527,-0.100067272782
1765456163.544121,17.736188411712646,-0.034100789476028875,-0.12539710374476662,-1.7468473869737293,-0.0249495841563,-0.0437218695879,-0.158829689026,0.0677995458245,0.0159911811352,-0.11361541599
1765456163.7454054,17.937472820281982,-0.02623972674638722,-0.11211844939157703,-1.7726978927268013,0.0277128070593,0.135569423437,-0.062159538269,-0.0467196218669,0.0421904027462,-0.121337175369
1765456163.9457712,18.13783860206604,-0.039467656203189205,-0.11357557301487867,-1.7996651950829983,-0.0223438255489,0.104695141315,0.0512056350708,-0.0988319665194,-0.0261679347605,-0.134931504726
1765456164.1458364,18.33790373802185,-0.05075525226284069,-0.12916946310648544,-1.8264230398194603,-0.110747292638,0.0808169096708,0.0128793716431,-0.027631226927,-0.114324703813,-0.12356043607
1765456164.3440316,18.536098957061768,-0.02468705597719519,-0.11724463501581606,-1.8512311843218754,0.040511123836,0.0895728319883,0.113786697388,0.1563988626,0.142417117953,-0.104039922357
1765456164.546314,18.738381385803223,-0.008303862154840464,-0.08657859305728423,-1.8698397561226952,0.0281249526888,0.0233271736652,0.0262613296509,-0.0562906377017,0.138563662767,-0.0657603144646
1765456164.7465127,18.93858003616333,-0.03277654510755458,-0.08370632388736333,-1.8824498238842204,0.0183557681739,0.201802238822,0.177273750305,-0.165829062462,-0.171360388398,-0.0468522310257
1765456164.9455478,19.137615203857422,-0.03752542946495123,-0.13123816502936697,-1.8922807498901935,-0.234310939908,-0.0835092961788,-0.194867134094,0.12470112741,-0.160242646933,-0.0558301918209
1765456165.1442983,19.336365699768066,0.013338711756662775,-0.10869158524702555,-1.9047262342963516,0.0167216397822,-0.0214719213545,-0.178569793701,0.244171187282,0.319720029831,-0.0585570968688
1765456165.3465486,19.538615942001343,0.01748242500555524,-0.07695049173545598,-1.9145104218251938,0.312900811434,0.252351880074,0.154825210571,-0.237818062305,-0.12547673285,-0.0278905089945
1765456165.5462449,19.738312244415283,-0.04951959129012516,-0.14974593618292714,-1.9230370646873005,-0.221904188395,-0.0704176276922,-0.231629371643,-0.295220315456,-0.386776059866,-0.0667691230774
1765456165.7455986,19.937665939331055,-0.05185176306859958,-0.1794179615869653,-1.9407287101248059,-0.179483801126,-0.104355067015,-0.178887367249,0.17535315454,0.0550039224327,-0.104409471154
1765456165.9444823,20.136549711227417,-0.009577349377710827,-0.14000920285575888,-1.9636075275755132,0.288064301014,-0.0533177293837,0.195168495178,0.0362493097782,0.227078065276,-0.0827700048685
1765456166.143827,20.335894346237183,-0.05759356334594564,-0.12272716823866449,-1.9729913088344617,0.120025232434,-0.00651809386909,0.285603523254,-0.423511922359,-0.0480756275356,-0.00587850948796
1765456166.3445365,20.536603927612305,-0.10734217816743921,-0.13700038010094417,-1.9735682826846275,-0.29809704423,0.0149467028677,0.168510437012,0.0232540108263,-0.0591248385608,-0.0106409192085
1765456166.5445983,20.736665725708008,-0.04043926891501258,-0.13391329369959476,-1.981031392165411,-0.108268044889,-0.0745205432177,-0.0702295303345,0.47364756465,0.09859726578,-0.0505819916725
1765456166.746896,20.938963413238525,0.01667568069055918,-0.12374176603495743,-1.9972717479668778,0.160031810403,-0.0520320385695,-0.00164318084717,-0.0411495603621,-0.0402420759201,-0.094017393887
1765456166.9488087,21.140876054763794,-0.03661370874933021,-0.1419699219188161,-2.0252204251847687,-0.163082823157,-0.0166924670339,-0.15945148468,-0.393308699131,-0.0877425149083,-0.183165088296
1765456167.1455173,21.337584733963013,-0.07920439986739569,-0.15809155066993572,-2.0746951671776612,-0.32514578104,0.093049928546,-0.201616287231,-0.072218477726,-0.0163763780147,-0.286796689034
1765456167.3465333,21.53860068321228,-0.05418565757940415,-0.16359339181068722,-2.1344554367746036,0.032216321677,-0.0473267398775,-0.0703830718994,0.100484505296,-0.0338509753346,-0.258100062609
1765456167.545858,21.7379252910614,-0.04978305698452886,-0.17730709017269805,-2.175983971864972,0.0225725062191,-0.127722784877,-0.0708894729614,-0.129440426826,-0.0680416896939,-0.148452818394
1765456167.7479966,21.940063953399658,-0.08298908467153455,-0.18172322711605152,-2.1994991516581535,0.0152162062004,-0.0258919317275,0.0460548400879,-0.209705546498,0.0194154679775,-0.082066655159
1765456167.9445717,22.13663911819458,-0.10467023696814111,-0.17598501378379866,-2.2177925383439625,-0.0486531741917,0.0873223617673,0.169917106628,-0.0227704644203,0.0617213584483,-0.0892892479897
1765456168.1444883,22.33655571937561,-0.07707209832873173,-0.17882182962170787,-2.240075074026601,0.0482105240226,0.160450622439,0.0493278503418,0.224834725261,-0.0657439306378,-0.12212844193
1765456168.3454766,22.537544012069702,-0.03361702418342138,-0.20738248461334235,-2.2628368455473993,0.177854195237,-0.00392976216972,-0.0321969985962,0.0775091275573,-0.175859004259,-0.103664390743
1765456168.5455227,22.737590074539185,-0.03435299291185398,-0.21993318052731559,-2.2847077896835657,-0.00940860435367,-0.0257602427155,-0.150918960571,-0.0967994332314,0.0856928750873,-0.100401066244
1765456168.7436223,22.935689687728882,-0.044537370328750936,-0.17350734186364344,-2.3066330623059703,0.119410917163,0.114918850362,0.0136728286743,-0.0604689121246,0.303832501173,-0.0732436776161
1765456168.947102,23.139169454574585,-0.05081181946886965,-0.14109762014851746,-2.3211883029276894,0.327353358269,0.276568263769,0.259727478027,-0.0534713342786,-0.0491708517075,-0.0351771749556
1765456169.1452055,23.337272882461548,-0.043762269777050986,-0.1750676047225368,-2.3247872988248224,-0.117517054081,0.0842027142644,-0.0995101928711,0.149887099862,-0.12528449297,-0.00434815930203
1765456169.3438566,23.535923957824707,-0.0023665294173540207,-0.17541078631850715,-2.323225354845491,0.058852892369,-0.0657411292195,-0.126384735107,0.166345432401,0.108722612262,0.030388686806
1765456169.545848,23.73791527748108,-0.012196684823101447,-0.16057716213909073,-2.312433160844054,0.248343870044,0.0411532595754,0.0758800506592,-0.267709821463,-0.033988058567,0.0923968926072
1765456169.7454965,23.9375638961792,-0.06922384582005227,-0.17364286347361485,-2.2910106930354566,-0.164280608296,0.0933171957731,-0.0953750610352,-0.152993202209,-0.0240415371954,0.113994635642
1765456169.9463773,24.138444662094116,-0.05434315859074711,-0.15750906740526494,-2.2704010219915514,0.0411808080971,0.0868628770113,-0.0117702484131,0.240515947342,0.103770963848,0.115820035338
1765456170.143102,24.335169315338135,-0.01757628686981832,-0.15426896575453367,-2.2448839440069572,0.246992006898,0.0305433534086,0.0541954040527,0.0708974972367,-0.112655758858,0.157781690359
1765456170.344441,24.536508321762085,-0.03387217998298619,-0.1801333033005174,-2.2083878512704564,0.0532062277198,-0.0328478626907,-0.0401697158813,-0.143054127693,-0.107631109655,0.198990881443
1765456170.545571,24.737638473510742,-0.05872144119591862,-0.17370641315512686,-2.169042841957844,-0.0954906865954,0.00934801064432,-0.056414604187,0.000923127110582,0.159107908607,0.197333872318
1765456170.7469718,24.93903923034668,-0.046328820537398396,-0.13152271546946354,-2.132708802573675,0.147365376353,0.0575502179563,0.207717895508,0.0932477489114,0.153457373381,0.201662674546
1765456170.9466136,25.138680934906006,-0.0444351174264595,-0.12342696374935325,-2.0915441884462656,0.0434072874486,0.00199335627258,0.128926277161,-0.0117465853691,-0.0518500842154,0.215937957168
1765456171.149739,25.341806411743164,-0.04218205401592805,-0.13153406719361,-2.0489659684122423,-0.0750432088971,0.0128952553496,-0.0561189651489,0.102146714926,-0.00791251566261,0.210296362638
1765456171.3465447,25.538612127304077,-0.015123238786773328,-0.12790268892209722,-2.0097947303607575,-0.00978594180197,-0.00387884210795,-0.101144790649,0.176770284772,0.0432185940444,0.1922108531
1765456171.5453248,25.73739218711853,0.0020154505344617316,-0.12298234900536452,-1.9726158031207606,0.0919846370816,0.0298105403781,-0.107060432434,0.00959411263466,-0.00187605654355,0.189914554358
1765456171.7449405,25.937007904052734,-0.01380070362676427,-0.12123568983730083,-1.9364194491649487,0.0172117836773,0.00871792435646,-0.0414819717407,-0.0992834642529,0.031145658344,0.180947035551
1765456171.9464154,26.138482809066772,-0.03128826666068822,-0.11332855650139541,-1.903129136590631,-0.0330441631377,0.0715856924653,0.0592813491821,-0.0201225280762,0.025791676715,0.16503110528
1765456172.148876,26.340943336486816,-0.022969516811175837,-0.10999039226590038,-1.873195871728413,0.0135191362351,0.101576142013,0.126856803894,0.0971235334873,-0.00211596488953,0.148641332984
1765456172.344721,26.53678846359253,-0.005650806512741314,-0.11316592058257564,-1.8442831301959133,0.0448791906238,0.0451992042363,0.0981636047363,0.0680975615978,-0.0223800558597,0.153311342001
1765456172.544364,26.73643136024475,-0.0035704178899824703,-0.1147039044344748,-1.8139514564346193,0.0232225991786,0.0684513747692,0.0697917938232,-0.0225693043321,-0.00279098795727,0.165218889713
1765456172.7450552,26.937122583389282,-0.010496078576247415,-0.1136798690610689,-1.7813875210476209,-0.0374562591314,0.103631801903,-0.0199851989746,-0.00699758622795,-0.00510513829067,0.174241513014
1765456172.9467537,27.138821125030518,-0.003356190247049189,-0.11214426540939398,-1.7480902842544692,-0.00332233030349,0.0833440572023,-0.0893859863281,0.0896148383617,0.024189800024,0.170848533511
1765456173.1451027,27.337170124053955,0.007843161293689276,-0.11175193184655488,-1.714323399003082,0.0544906593859,0.0946402326226,-0.100687980652,0.0230319816619,-0.0259608067572,0.174713924527
1765456173.345306,27.537373304367065,-0.0006513398278071337,-0.11731602437778699,-1.6797623591146331,0.0332290530205,0.0846453011036,-0.0339431762695,-0.0774934887886,-0.0165417809039,0.180456772447
1765456173.5450416,27.737108945846558,-0.02024452044953632,-0.1193117057525299,-1.6446717496434222,-0.0400067083538,0.0840504169464,0.0171327590942,-0.0556707382202,-0.0133186588064,0.178300589323
1765456173.7457278,27.937795162200928,-0.020146127050230903,-0.11463259829628793,-1.6102957994507339,-0.0186056829989,0.0636488422751,0.0171346664429,0.0842705592513,0.0565245859325,0.174854725599
1765456173.9459379,28.138005256652832,-0.005172492377990075,-0.10615461638072403,-1.5769138741349176,0.0661292076111,0.123597227037,0.120530128479,0.0486887954175,0.000645965221338,0.169039532542
1765456174.1453905,28.33745789527893,-0.010574223628889826,-0.11430480477799121,-1.544089614751364,0.0195475518703,0.0570043213665,-0.000725746154785,-0.062613196671,-0.0492259860039,0.167620927095
1765456174.3453138,28.537381172180176,-0.02027700061186228,-0.11533377532179218,-1.5129105231312068,-0.0602224133909,0.0446064844728,-0.0319328308105,0.00438317703083,0.0194244086742,0.154409572482
1765456174.5446699,28.73673725128174,-0.01161540622270502,-0.10900657894733307,-1.4843638330905384,-0.008051446639,0.0356101430953,-0.0567398071289,0.0802941843867,0.0407345630229,0.144238054752
1765456174.7454188,28.937486171722412,-0.003937148175802642,-0.10636568021949121,-1.4582759065262858,0.0608697533607,0.0676889643073,0.0350017547607,-0.0133141875267,-0.0229001063854,0.13081356883
1765456174.9484475,29.140514850616455,-0.018563741228938467,-0.11272467640184154,-1.4341505965273669,-0.0226485319436,-0.00940107274801,-0.0206203460693,-0.0839516669512,-0.0118404654786,0.119907431304
1765456175.145614,29.33768129348755,-0.027132586871944513,-0.10909159204275544,-1.4134550385383067,-0.0595280192792,0.029908772558,0.0237693786621,0.0234059989452,0.0301800724119,0.101584941149
1765456175.3451426,29.53720998764038,-0.014388109578262483,-0.10491244314690541,-1.3963263853552441,0.000370037741959,0.0505093932152,0.0448665618896,0.0765256658196,0.00189617287833,0.0864885747433
1765456175.544783,29.73685050010681,-0.007434876332188161,-0.10739026486987195,-1.382024810827355,0.038939807564,0.0517064705491,0.0386953353882,-0.018472969532,-0.0240802746266,0.0683344900608
1765456175.7456295,29.937696933746338,-0.018660143499210132,-0.11386051460676033,-1.370121546019137,-0.0195232927799,0.0325913764536,0.0202007293701,-0.0597030036151,-0.0479295924306,0.0565879121423
1765456175.9477022,30.139769554138184,-0.01983851738016454,-0.11350724628816132,-1.3613340465282568,-0.0383542627096,-0.0186336003244,-0.108548164368,0.0530891157687,0.06248280406,0.0432856418192
1765456176.145364,30.33743143081665,-0.0040655577932770465,-0.10074968933651618,-1.3545545704992967,0.0310434028506,0.0651726275682,0.0168571472168,0.0608541183174,0.0344760753214,0.0419817864895
1765456176.346389,30.538456439971924,-0.0043935042352769875,-0.10564793333857964,-1.3470094356569386,0.0408701598644,0.0199473239481,0.0126981735229,-0.0691071227193,-0.0637203454971,0.0471182204783
1765456176.5469654,30.739032745361328,-0.020956148301724518,-0.1132320834909073,-1.3380593501815095,0.00420066062361,-0.0905339568853,-0.0275640487671,-0.0669985935092,0.00485107302666,0.0511996373534
1765456176.7466328,30.938700199127197,-0.02058277519749001,-0.10345946406805022,-1.3295865031734222,-0.0161151401699,-0.036414526403,0.0287370681763,0.0587195269763,0.0722751021385,0.0509902946651
1765456176.9459848,31.138052225112915,-0.004902782819186902,-0.09302605612209562,-1.3217731880092933,0.0423321053386,0.0564242377877,0.0867309570312,0.0537522248924,0.00641867658123,0.0456415191293
1765456177.1559353,31.348002672195435,-0.005832722261437043,-0.10183197303638916,-1.3141287172582754,0.0490131787956,-0.00106333754957,0.0260028839111,-0.0636637285352,-0.0693738460541,0.0455968119204
1765456177.3451793,31.537246704101562,-0.01852703537897661,-0.11443802108914401,-1.3073196801412152,0.00327513553202,-0.0935704931617,-0.0448207855225,-0.0481069162488,-0.0332698337734,0.0363834314048
1765456177.545885,31.73795247077942,-0.017194600749853024,-0.10748310100099642,-1.3027365130632433,-0.00835633836687,-0.0586624965072,-0.0333213806152,0.0433966554701,0.087808072567,0.0298634190112
1765456177.7435398,31.935607194900513,-0.005925881925022077,-0.09240042964776557,-1.2993195442266172,0.021829130128,0.0453234165907,0.0178775787354,0.0369988419116,0.028512628749,0.0254176557064
1765456177.9428017,32.13486909866333,-0.006010596975267768,-0.09845387802929975,-1.2956065650348287,0.0541782937944,-0.0268610194325,-0.00784397125244,-0.052040822804,-0.0856325104833,0.029877576977
1765456178.1472342,32.33930158615112,-0.017992189408304635,-0.10892581026489802,-1.2914552295276132,0.0260325856507,-0.103499740362,0.00932884216309,-0.0618450380862,-0.00710263848305,0.0253930687904
1765456178.3439653,32.53603267669678,-0.020049835051473123,-0.09991356494515058,-1.2883597042345596,-0.0128325540572,-0.0414681620896,0.014799118042,0.0342078544199,0.0649370253086,0.0192083436996
1765456178.543593,32.73566031455994,-0.006167831670501727,-0.09283162871776303,-1.2863206549459405,0.0328383632004,0.0230390112847,0.00929546356201,0.0656194984913,-0.0173971056938,0.0166855771095
1765456178.7432022,32.935269594192505,-0.00048586744086882085,-0.10253962487229365,-1.2845326085900612,0.081090323627,0.000449409708381,-0.0307092666626,-0.0303566455841,-0.0666752532125,0.0142477452755
1765456178.9435177,33.13558506965637,-0.012189087531913617,-0.11257292615397746,-1.2826299131492542,0.0342677123845,-0.0838877633214,-0.0457563400269,-0.0824570655823,-0.00809133145958,0.0168479997665
1765456179.1440845,33.33615183830261,-0.019003229387828793,-0.104256631406095,-1.2817298978588618,-0.0241954103112,-0.0507023632526,0.0154485702515,0.00477507757023,0.0657461583614,0.0102140018716
1765456179.3435438,33.535611152648926,-0.007779103947094463,-0.09599248468130764,-1.2824878335050984,0.0190866645426,0.0289763100445,0.0467023849487,0.0667162314057,0.0167153794318,0.00148639082909
1765456179.544103,33.736170291900635,0.0011923725115456213,-0.10616384589837684,-1.2837373886885637,0.0605629533529,-0.0509974323213,-0.0179567337036,-0.00411123037338,-0.0800117924809,-0.0010758638382
1765456179.743862,33.93592929840088,-0.007285741391738325,-0.10752803352201311,-1.2845384675444593,0.0548689849675,-0.0913136377931,-0.0561037063599,-0.0711232498288,0.0739201903343,0.00126361846924
1765456179.9442673,34.13633465766907,-0.016839033374219218,-0.09391211478390021,-1.2858305001473114,-0.029460946098,0.0357202962041,0.0738210678101,-0.0180304050446,0.0291131492704,-0.00386536121368
1765456180.1453917,34.337459087371826,-0.010511760017759858,-0.1021486395347564,-1.288822961106179,0.00931769609451,-0.00925520434976,-0.0186424255371,0.0448770932853,-0.0892803296447,-0.014957787469
1765456180.3442752,34.53634262084961,6.0087856551206003e-05,-0.11180661819506398,-1.2930025261209492,0.0858883410692,-0.0369303375483,-0.0473108291626,0.0152222812176,0.00749453948811,-0.0156417451799
1765456180.544613,34.73668026924133,-0.006376065900610704,-0.10691432469356116,-1.2973422802752879,0.0392948053777,0.012026540935,0.00797939300537,-0.0902757123113,0.0143177807331,-0.0202998518944
1765456180.743995,34.93606233596802,-0.020215360916194556,-0.10011539094388656,-1.3029977691661803,-0.0290171708912,0.00574239529669,0.0514421463013,-0.0450596213341,0.0462465025485,-0.0257223844528
1765456180.943928,35.135995388031006,-0.017080892093685046,-0.10077019567690979,-1.310816543810544,-0.00933629926294,0.0579061210155,0.113200187683,0.0423409044743,-0.0612556934357,-0.0382930077612
1765456181.144235,35.336302280426025,-0.004524999894694252,-0.11251478601842967,-1.3204400095675997,0.0460737384856,-0.0185399781913,-0.0359201431274,0.0368706882,-0.0190034527332,-0.0464484095573
1765456181.3442752,35.53634262084961,-0.0030804708907392238,-0.10642119048346255,-1.3308355257246693,0.0403434485197,-0.0119789270684,-0.0550298690796,-0.0445842780173,0.0782914459705,-0.0477373600006
1765456181.5441933,35.736260652542114,-0.014937023489333342,-0.09668442386678067,-1.3419955022726464,-0.0237488411367,0.0846491158009,0.0775194168091,-0.0787675455213,-0.021131336689,-0.0526964701712
1765456181.744793,35.93686032295227,-0.020575245525626732,-0.10940850821247487,-1.3552796161060707,-0.0213452838361,-0.0169765669852,-0.0387678146362,0.00497475313023,-0.0672027543187,-0.0691562891006
1765456181.9443235,36.136390924453735,-0.008259022740432205,-0.11112821119687992,-1.3715611177463791,0.0296416226774,0.0137626193464,-0.0368556976318,0.0563196875155,0.0379927456379,-0.0826165154576
1765456182.1453364,36.337403774261475,-0.0035896904377773174,-0.10635510247653655,-1.389432526557465,0.0494429841638,0.0814180970192,0.0386447906494,-0.05288124457,-0.0124230980873,-0.0851064920425
1765456182.3457432,36.53781056404114,-0.017287990319141536,-0.1119933890112626,-1.4085412400110013,-0.00745900906622,0.0141687458381,-0.0210800170898,-0.0896483659744,-0.0220984276384,-0.0919505953789
1765456182.546144,36.73821139335632,-0.021221428274620834,-0.10875340387382901,-1.4297823465493644,-0.0294807832688,0.0334986001253,0.00724697113037,0.0153757631779,0.035846978426,-0.105783350766
1765456182.7447896,36.93685698509216,-0.008081550621656896,-0.10569123467342864,-1.4526048381430166,0.0121838413179,0.0808070898056,0.0461978912354,0.054154548794,-0.029069185257,-0.110705204308
1765456182.9435554,37.13562273979187,-0.0016830732061833063,-0.11384084050420737,-1.4752128121108627,0.0570837855339,-0.00361772254109,-0.0524015426636,-0.0297844391316,-0.0120013952255,-0.104883313179
1765456183.1443734,37.33644080162048,-0.01116237547355272,-0.11105283541565227,-1.4968924081227073,0.0317216143012,0.0457802563906,-0.0118093490601,-0.0850111246109,0.0297375041991,-0.100584328175
1765456183.3455007,37.53756809234619,-0.019427135973747556,-0.10669757667034234,-1.5176135324582323,-0.0260916762054,0.0336908511817,0.011815071106,-0.0132158407941,0.02138540335,-0.0937685370445
1765456183.545986,37.73805332183838,-0.010021415885022027,-0.10568043222625702,-1.5372598049778012,0.032485999167,0.139757543802,0.0794048309326,0.0515446104109,-0.0341087505221,-0.0869989320636
1765456183.7455401,37.937607526779175,-0.001795098661318569,-0.11667047412955178,-1.5546996485342397,0.0572624392807,-0.0182352494448,-0.0643978118896,-0.00616461038589,-0.0312924422324,-0.0743940547109
1765456183.9458642,38.13793158531189,-0.00623041647626724,-0.11171231732533995,-1.5691518248217726,0.0492762327194,0.0128495739773,0.00862312316895,-0.0672206357121,0.0429593026638,-0.0582963190973
1765456184.1446698,38.33673715591431,-0.01580593805162054,-0.10490655090299361,-1.580490499478894,-0.0267516355962,0.0438440367579,0.0221347808838,-0.0369802154601,0.0211320836097,-0.0455588102341
1765456184.3437583,38.53582572937012,-0.01326810781915395,-0.10561555096419996,-1.5897853311574341,0.0203343331814,0.0407949090004,0.0365695953369,0.0286556836218,-0.02647042647,-0.0339597575366
1765456184.5438285,38.73589587211609,-0.0036885405275977937,-0.11092981401804741,-1.596538841365766,0.0290887653828,-0.0339908748865,-0.0554227828979,0.0254608709365,-0.0112980604172,-0.0221937894821
1765456184.745186,38.93725347518921,-0.003522324165542947,-0.105979097420131,-1.6002546168766991,0.0574883073568,0.00792893115431,0.0200538635254,-0.0528007782996,0.0352628529072,-0.00213235639967
1765456184.9460993,39.138166666030884,-0.015861264182969636,-0.10606296202733327,-1.6006483652438672,0.00583189539611,0.0127672683448,0.0348873138428,-0.068528957665,-0.0427767671645,0.0103287398815
1765456185.1474085,39.339475870132446,-0.018587120870476922,-0.11187400449302139,-1.5988544599335899,-0.0235649757087,-0.0994688570499,-0.0260419845581,0.0385575033724,0.0145398080349,0.0186152774841
1765456185.345574,39.537641286849976,-0.004460849441491017,-0.10109660768039104,-1.5951333581004767,0.0571503303945,-0.0060208607465,0.0353555679321,0.0560015514493,0.0596970431507,0.0317290462554
1765456185.5465333,39.738600730895996,-0.004974906631052212,-0.09841586140473886,-1.5882460240473684,0.0612833760679,0.0209242813289,0.0595932006836,-0.0695154070854,-0.0412240661681,0.0472828745842
1765456185.7463684,39.938435792922974,-0.01941999745366938,-0.11188922612312686,-1.5784076411903432,-0.0384485349059,-0.0733037739992,-0.0749034881592,-0.0355988740921,-0.0367686152458,0.0586830191314
1765456185.9455948,40.137662172317505,-0.01209648754827642,-0.10705980819048515,-1.5673222331528882,-0.0186494551599,-0.0186818651855,-0.0248918533325,0.0830672755837,0.0527761876583,0.064497448504
1765456186.1457124,40.33777976036072,0.0006788003606009296,-0.10037360105632655,-1.5547868670599398,0.0779181048274,-0.00369474291801,0.0362730026245,0.0153459608555,0.006315858569,0.0695951357484
1765456186.346386,40.538453340530396,-0.009264520536086288,-0.10284751126144204,-1.5399428066180016,0.0436335802078,0.00571585260332,0.0229263305664,-0.0933259800076,-0.0433787703514,0.0873737111688
1765456186.546134,40.738201379776,-0.022099306038451828,-0.11316052768136822,-1.5238798173451342,-0.0357925184071,-0.0788049325347,-0.0454893112183,-0.0050932164304,-0.0279754381627,0.0858053416014
1765456186.7455525,40.93761992454529,-0.010123038367149168,-0.10309218086421466,-1.5078660965524333,0.0350861810148,-0.022070273757,0.044807434082,0.0993818044662,0.0897631123662,0.0838026404381
1765456186.9456396,41.137706995010376,-0.0010040391037826003,-0.10059927899157554,-1.4909800573446768,0.0598522126675,0.000342563726008,0.0430660247803,-0.0138312578201,-0.066594786942,0.0934131368995
1765456187.1449084,41.33697581291199,-0.009793972565253552,-0.11006409524906832,-1.4726113032000188,-0.00083870254457,-0.0903521925211,-0.0916948318481,-0.041551887989,0.00701919244602,0.0969655662775
1765456187.3443537,41.536421060562134,-0.01374522873290116,-0.10204055680639121,-1.4540441435541498,0.0184860080481,0.0112267909572,0.0219955444336,0.00407174276188,0.0348888374865,0.0982992351055
1765456187.5442882,41.7363555431366,-0.010213624335211993,-0.10338530335406991,-1.4359651413360923,0.00821556895971,0.000678305514157,0.025294303894,0.0263206679374,-0.0418812036514,0.0948794260621
1765456187.7440605,41.93612790107727,-0.006196540234963591,-0.10882482652531357,-1.4182647074669898,0.0348808020353,-0.0520627722144,-0.0316619873047,0.0161282718182,-7.45058132452e-05,0.096637763083
1765456187.9472907,42.139358043670654,-0.00778136763402103,-0.10467950809768595,-1.4011198090012775,0.0196094848216,-0.0121317338198,0.00919246673584,-0.0235363841057,0.0252746064216,0.0900365263224
1765456188.146918,42.338985443115234,-0.01304803292516713,-0.10430103129489365,-1.384803686266798,0.00562162604183,0.0137202441692,0.0572605133057,-0.0181049089879,-0.0290811080486,0.0858046114445
1765456188.3462722,42.538339614868164,-0.012564946946697065,-0.11088209350026457,-1.3700706796423163,-0.0092466827482,-0.0349123254418,-0.0269184112549,0.0245817005634,-0.00833422038704,0.0740043818951
1765456188.5459697,42.738037109375,-0.005505928988995053,-0.10533691773515041,-1.3568338369182409,0.0400548800826,-0.0159350689501,0.00796413421631,0.0296138189733,0.0485755540431,0.0722281560302
1765456188.7461212,42.938188552856445,-0.004430583551969837,-0.10171861392011426,-1.3444774352505457,0.028720613569,0.0154334353283,0.0786542892456,-0.0232644360512,-0.0391758978367,0.070364780724
1765456188.9447093,43.13677668571472,-0.010558373659214651,-0.11255283593250417,-1.3325916141474676,0.0153477769345,-0.144201755524,-0.0398302078247,-0.0193804521114,-0.0161021966487,0.0640220940113
1765456189.1449504,43.33701777458191,-0.006784597412572111,-0.10716184887212722,-1.321094348247432,-0.00340910628438,-0.0702856108546,0.0573043823242,0.0448144972324,0.0296182986349,0.0618957057595
1765456189.350718,43.54278540611267,0.003176162117805784,-0.10129492995781787,-1.3094367600497738,0.0480428338051,-0.097120411694,0.00676345825195,0.0325344502926,0.0323005057871,0.0695161595941
1765456189.5458014,43.737868785858154,0.0048666985468622794,-0.09782345786500755,-1.2966208299359854,0.0300311949104,-0.0484124533832,0.0323219299316,-0.0171586871147,-0.0202566403896,0.0734440982342
1765456189.7494066,43.941473960876465,0.00045984248584085525,-0.10903547424516043,-1.2832098164766188,0.00235519837588,-0.111771725118,-0.043927192688,-0.0116616487503,-0.0644996762276,0.0736691132188
1765456189.948149,44.14021635055542,0.003989368759634487,-0.12010359670266496,-1.2694484641758526,0.0100231030956,-0.158286884427,0.00150489807129,0.0469557978213,-0.0228881835938,0.0763781443238
1765456190.1468315,44.33889889717102,0.014892058719100336,-0.1143804884872199,-1.2544339614241493,0.0655203610659,-0.0935135632753,-0.116479873657,0.0491060428321,0.11282043159,0.0873081535101
1765456190.3457468,44.537814140319824,0.017564377546318625,-0.09562785631618376,-1.2368909203754703,-0.000594253651798,0.0626159980893,0.0154733657837,-0.0179842077196,0.0327177383006,0.0935100018978
1765456190.5452895,44.73735690116882,0.008585807170347138,-0.11092868217458414,-1.2207067572730042,-0.0408393330872,0.027212895453,0.130921363831,-0.0482797734439,-0.158262267709,0.0754900276661
1765456190.7443993,44.936466693878174,0.005368368916462704,-0.1354192197498721,-1.2081443600949915,0.051196385175,-0.158966869116,-0.0933618545532,0.016865875572,0.0045977528207,0.0682361423969
1765456190.943888,45.13595533370972,0.013060593474777137,-0.11042056768335383,-1.1958670543116716,-0.0340970680118,0.0480106547475,0.0419883728027,0.0415332652628,0.18138512969,0.0652901977301
1765456191.1452901,45.33735752105713,0.014633111035874065,-0.099703025416223,-1.1854326560026867,-0.0135123031214,0.0937075018883,0.214165687561,-0.0387459993362,-0.0856384709477,0.0518776476383
1765456191.3459826,45.538049936294556,0.0015867282823003484,-0.12216059736150695,-1.1781514404243556,0.0320569612086,-0.103227607906,-0.067512512207,-0.073622174561,-0.0591501630843,0.0391282141209
1765456191.5456913,45.73775863647461,-0.005650867890282063,-0.11028189189196635,-1.171913784519172,-0.0411475077271,0.0551867298782,0.0439672470093,-0.00464171171188,0.108332194388,0.0341482460499
1765456191.7458658,45.93793320655823,-0.0006660117908263012,-0.11530483008969437,-1.1691692638577909,-0.0684202164412,0.127015441656,0.136487007141,0.0233300030231,-0.208732500672,0.0093109915033
1765456191.9467013,46.138768672943115,0.0013145539991172258,-0.12670919327957822,-1.1691628722711747,0.0867080837488,-0.141925022006,-0.210078239441,-0.0198259968311,0.153147429228,0.0071637337096
1765456192.1441615,46.33622884750366,-0.002838855600841785,-0.07875361824100775,-1.1699465074219304,-0.155230149627,0.290986478329,0.267157554626,-0.0237643737346,0.114915542305,-0.00667721126229
1765456192.3460565,46.53812384605408,-0.005842448521050987,-0.1093386085562387,-1.1746468535878658,-0.0235668160021,0.113538190722,-0.0147581100464,-0.0262051876634,-0.246281921864,-0.0248417314142
1765456192.5443425,46.73640990257263,-0.007552838764019159,-0.1414706624382103,-1.182471087712464,0.0473854131997,-0.0992117449641,-0.216563224792,-0.0118613243103,0.0101946303621,-0.0396996773779
1765456192.7439523,46.93601965904236,-0.00907348658154894,-0.11425350563749356,-1.193610957394211,-0.0459923408926,0.0884298011661,0.0278997421265,-0.0210985541344,0.145980015397,-0.0556051805615
1765456192.944343,47.13641047477722,-0.00911038904770065,-0.09145001403374355,-1.2084243914836132,-0.0602435097098,0.140437886119,0.0323896408081,-0.0153839597479,0.0365026332438,-0.0718265771866
1765456193.1480591,47.340126514434814,-0.006655061153120927,-0.1013273705888464,-1.226132548519877,-0.0382699780166,0.17008754611,0.0904960632324,-0.0100255012512,-0.141939535737,-0.0881076008081
1765456193.3461227,47.53819012641907,-0.008463405269784926,-0.12983928973253242,-1.2464715092389758,0.0175211112946,-0.0111102825031,-0.0968399047852,-0.0417485833168,-0.0689983442426,-0.101487345994
1765456193.546322,47.73838949203491,-0.010837090112048257,-0.11748540142311603,-1.2694937379143838,-0.0200232490897,0.0554639846087,-0.0184373855591,-0.0214725732803,0.161033138633,-0.110554695129
1765456193.744187,47.93625450134277,-0.008310818102742343,-0.09492831047684719,-1.2944924315927941,-0.0415571480989,0.214256212115,0.136142730713,-0.00488161994144,0.0102899977937,-0.126136809587
1765456193.946481,48.138548374176025,-0.007251201440756758,-0.10552432105210793,-1.3215769130369543,-0.0306152738631,0.0704032853246,0.0240936279297,-0.0202864445746,-0.057417165488,-0.133655965328
1765456194.146875,48.33894228935242,-0.0052768435599372466,-0.1064795303560921,-1.3498710022482288,-0.00400827266276,0.0713042467833,0.0229454040527,-0.00625997874886,0.0108577338979,-0.138565942645
1765456194.3459477,48.53801512718201,-0.002083099507487598,-0.10957561324849893,-1.3785019813373982,0.0149624422193,0.0301769468933,-0.00912761688232,-0.00898689031601,-0.0307917650789,-0.135631859303
1765456194.5455084,48.73757576942444,-0.00039124401396296323,-0.11291434340572562,-1.4060720902063344,0.0171172656119,-0.0289203133434,-0.0890817642212,-0.0173285603523,0.0102020800114,-0.12549610436
1765456194.7448177,48.9368851184845,0.00040871531949074444,-0.10005489557524973,-1.4314544122397708,0.021405890584,0.0261825509369,0.0599241256714,-0.020769238472,0.0844426527619,-0.116807237267
1765456194.9452033,49.13727068901062,-0.0038289377509437826,-0.09672703444422193,-1.4556277922963654,0.0208219047636,-0.00841566361487,0.100472450256,-0.0479400195181,-0.0172451138496,-0.109100341797
1765456195.145643,49.3377103805542,-0.007674615445903584,-0.09902410243057774,-1.4785653324491088,-0.0222392603755,-0.0265757776797,0.118589401245,-0.0225603599101,-0.0029519200325,-0.10558218509
1765456195.3454115,49.53747892379761,-0.0045856523482235055,-0.10737391971868158,-1.5004373418497117,0.0072930008173,-0.0776066705585,0.0533361434937,0.0114388773218,-0.05467832461,-0.0965520590544
1765456195.5457408,49.73780822753906,0.0011026101988707152,-0.11694965663557616,-1.5198005203454052,0.0287314876914,-0.253157347441,-0.0955104827881,0.00522062228993,0.0224910676479,-0.0777393653989
1765456195.744766,49.93683338165283,-0.0015546292588979748,-0.09402881949629452,-1.5336444306399641,0.0372171401978,-0.0276421420276,0.133622169495,-0.0645727068186,0.118910543621,-0.0503987185657
1765456195.9461992,50.13826656341553,-0.014043050245664181,-0.09707229663479389,-1.542684797276347,-0.0442961007357,-0.213560387492,-0.00670051574707,-0.0401496887207,-0.0386878885329,-0.0262349843979
1765456196.1465538,50.33862113952637,-0.004018867950044969,-0.0926558684081962,-1.5463015031947294,-0.023627165705,-0.103905588388,0.00400733947754,0.107427693903,0.0599615313113,0.00152215361595
1765456196.3461914,50.53825879096985,0.01727966794073504,-0.09815388125488073,-1.545616005530143,0.041101615876,-0.0682423114777,0.00638675689697,0.0644020810723,-0.111053884029,0.0184737127274
1765456196.5455961,50.73766350746155,0.01952185920417571,-0.1206285223982764,-1.540146138967229,0.0190771184862,-0.425836801529,-0.233129501343,-0.0170856732875,0.0388763844967,0.0592760741711
1765456196.7461944,50.93826174736023,0.017547945010154994,-0.08797591206935677,-1.524143736609161,-0.0194228962064,-0.0630937516689,0.097113609314,-0.0042080883868,0.152113288641,0.0939957872033
1765456196.9476538,51.139721155166626,0.018521022460577914,-0.0916579569806083,-1.5059203910600214,-0.0210273787379,0.0134518723935,-0.0651578903198,0.0190623104572,-0.154756009579,0.100415207446
1765456197.1468737,51.33894109725952,0.029011503197049662,-0.12521421947928382,-1.485942954458901,-0.0287503004074,-0.273181885481,0.0185022354126,0.0968642532825,-0.118459768593,0.121606141329
1765456197.3454554,51.53752279281616,0.04790594453494332,-0.13213525916493857,-1.4587897634586164,0.0915584638715,-0.292439848185,0.00460624694824,0.0809140503407,0.0628508701921,0.159949824214
1765456197.5456622,51.73772954940796,0.049367803591558256,-0.10366198914657233,-1.4174923907508667,0.0978483855724,-0.0454491451383,0.100829124451,-0.0306844748557,0.183803603053,0.23569393158
1765456197.746372,51.93843936920166,0.03380486858643444,-0.09763999103303632,-1.3703869300217633,0.0264325644821,0.166830644011,-0.0964813232422,-0.0770300701261,-0.104267917573,0.235366106033
1765456197.945533,52.13760042190552,0.02865648093720148,-0.13779903714472372,-1.3281752941117893,-0.114564433694,-0.0530862733722,-0.0426826477051,0.106865927577,-0.225223645568,0.20055103302
1765456198.1446269,52.33669424057007,0.07176310334041558,-0.17510542161001594,-1.2919789401559774,0.0858444273472,-0.117536008358,-0.0902824401855,0.288867264986,-0.100712478161,0.197211682796
1765456198.3457625,52.537829875946045,0.10163880231119594,-0.17177490564027645,-1.2473255850005642,0.203073114157,-0.015558890067,0.00587272644043,0.0446371734142,0.145652160048,0.255110085011
1765456198.5453777,52.73744511604309,0.07565141840047214,-0.15863753198291558,-1.192588170377566,-0.0201072078198,0.139219895005,-0.0379190444946,-0.170497611165,0.0134222237393,0.271873950958
1765456198.745965,52.938032388687134,0.054278701769988794,-0.1747180648294639,-1.1466184146953269,-0.163032069802,0.0221801456064,-0.0322208404541,0.054132193327,-0.123567886651,0.20068064332
1765456198.9454238,53.13749122619629,0.09026067125804937,-0.20535137487372296,-1.1164605787741877,-0.00469367951155,-0.00353279756382,0.0117330551147,0.265880703926,-0.132648661733,0.141572222114
1765456199.1469305,53.33899784088135,0.11833906938816252,-0.21907937108183617,-1.0881861303759528,0.129055321217,0.0458198972046,0.000595092773438,0.0317536331713,0.0309191681445,0.158906772733
1765456199.345398,53.5374653339386,0.09359624723386,-0.20902237598882908,-1.0533330748739769,0.00373432412744,0.144524052739,-0.0185499191284,-0.163023203611,0.0735782235861,0.170139268041
1765456199.5440514,53.73611879348755,0.05779981684999387,-0.20765878757643808,-1.0215477146316632,-0.157693818212,0.0992166846991,-0.0175695419312,-0.0787466838956,-0.045870244503,0.137346252799
1765456199.7454004,53.93746781349182,0.0674660513096807,-0.22575668159347823,-1.001106155631569,-0.0841054171324,0.0195071101189,0.0104570388794,0.156382501125,-0.0886246785522,0.0948973223567
1765456199.9476106,54.13967800140381,0.09567024218940805,-0.2380451060743491,-0.9845119323002581,-0.0306779518723,0.0336045995355,0.0584735870361,0.0993944853544,-0.0330165140331,0.0917188823223
1765456200.14533,54.33739733695984,0.09428873569630786,-0.24295614157202333,-0.9683415510564333,0.00874428078532,0.0950166210532,-0.0381946563721,-0.101386032999,0.00838413927704,0.0845663249493
1765456200.345954,54.53802132606506,0.06453870880065479,-0.24859964623801026,-0.9548362616944779,-0.147036090493,0.0549823045731,-0.0462417602539,-0.114472217858,-0.0468820333481,0.0528298430145
1765456200.545075,54.73714232444763,0.06354886175774278,-0.26108083364753243,-0.9523162455129904,-0.151956543326,0.0311026815325,0.00149059295654,0.077753521502,-0.0625431537628,-0.00311434268951
1765456200.7444417,54.936509132385254,0.08600687062789306,-0.27080408472168216,-0.9592047779885894,0.0705932229757,0.0665726289153,-0.0845575332642,0.05107447505,-0.0140890469775,-0.0310152769089
1765456200.9453387,55.13740611076355,0.07777240982688169,-0.25671789334695333,-0.9648325034251176,-0.0636920332909,0.112430229783,-0.0247573852539,-0.131377592683,0.0807307735085,-0.0328227877617
1765456201.1455288,55.33759617805481,0.055036991117307615,-0.2516269946071578,-0.9778148145280086,-0.083351790905,0.0545394122601,0.00240802764893,-0.116401918232,-0.0211462378502,-0.0837385728955
1765456201.346017,55.538084268569946,0.043911939430313435,-0.24063178450687261,-0.9969159379724384,-0.0447243452072,0.0374879688025,-0.0775079727173,-0.0642597675323,0.115186728537,-0.0911802127957
1765456201.5462956,55.73836302757263,0.03939159382574302,-0.21039448651670833,-1.0167304556938732,-0.129291325808,0.0899293422699,0.0360546112061,-0.0389575958252,0.156617924571,-0.103011727333
1765456201.74616,55.93822741508484,0.03884961141558747,-0.1919614170317249,-1.04025495655087,-0.0197038985789,0.0793532952666,-0.00420951843262,-0.0475376881659,0.0623904280365,-0.120113804936
1765456201.946546,56.13861346244812,0.029171220041643357,-0.17896822025787817,-1.0659826905776897,-0.0425124540925,0.0735490322113,0.0334339141846,-0.0988394245505,0.0600464716554,-0.12751968205
1765456202.144646,56.3367133140564,0.01547639371296655,-0.16319892771897604,-1.0947745245966998,-0.0369720160961,0.0521772317588,0.0873680114746,-0.0945031791925,0.0900976583362,-0.145261034369
1765456202.3448083,56.53687572479248,0.007413405636196697,-0.14476311184911844,-1.1276243503267183,-0.0308766029775,0.0415915623307,0.141841888428,-0.0555142872036,0.0966198891401,-0.167530819774
1765456202.5475636,56.739630937576294,0.005324347175732884,-0.13238834269228017,-1.1641563957379346,0.0154599081725,0.0270554572344,0.074610710144,-0.0430762805045,0.0403516106308,-0.183367758989
1765456202.7440667,56.93613409996033,0.0005008797761610978,-0.12683126592604474,-1.2024973933195875,0.00855876132846,0.0689290687442,0.0743618011475,-0.0683397129178,-0.0225409865379,-0.187367215753
1765456202.9465456,57.13861298561096,-0.005827551983852007,-0.13032548307904002,-1.241905519550035,-0.00389735214412,-0.0117531046271,-0.0227823257446,-0.0475838892162,-0.00547468755394,-0.191363722086
1765456203.1478207,57.33988809585571,-0.0037331890474513523,-0.12437802018651258,-1.281343606342746,0.0077793141827,-0.0220267567784,-0.0561103820801,0.00459924386814,0.0689752548933,-0.189417645335
1765456203.3464675,57.53853487968445,0.004619705960216942,-0.11921592349944952,-1.320351592619409,0.0133715104312,0.100515946746,0.0484113693237,0.00573918316513,-0.0476554110646,-0.186452314258
1765456203.5457485,57.737815856933594,0.005607262788621218,-0.13156963703891936,-1.358921488896754,0.0392040237784,0.0303052589297,0.00618743896484,-0.0526547506452,-0.0490874163806,-0.183314114809
1765456203.746375,57.93844246864319,-0.0002249346265729203,-0.1290966422954286,-1.396204279419264,-0.0192086435854,0.0353246219456,0.037579536438,-0.0462383143604,0.0719167292118,-0.177536904812
1765456203.9462922,58.13835954666138,0.0017725002830530257,-0.12985414517798802,-1.4335198268231817,-0.0150279141963,0.0389027409256,0.0242223739624,0.0050462782383,-0.0473111905158,-0.179195404053
1765456204.1455812,58.33764863014221,0.011033963255335065,-0.1354854742043662,-1.4701116602008704,0.0250989571214,0.0360145233572,-0.0133619308472,0.00912472605705,0.00516697764397,-0.170642152429
1765456204.345601,58.53766846656799,0.012308611449993134,-0.1299708082784903,-1.5043147712388125,0.00573021825403,0.0938641875982,0.0265083312988,-0.0494554713368,0.016117842868,-0.160294771194
1765456204.5448756,58.7369430065155,0.006504326755571092,-0.1307622498201914,-1.5372242517772488,-0.0248284302652,-0.00968780368567,-0.0859308242798,-0.0394299738109,0.00949278473854,-0.153228670359
1765456204.7461383,58.93820571899414,0.00962985630337472,-0.12019044904371518,-1.5684528781936813,-0.0135480426252,0.122057832778,0.069408416748,0.00975057482719,0.0427655912936,-0.151085853577
1765456204.9456444,59.13771176338196,0.015310365384648824,-0.12110343059966477,-1.6004261244509002,0.010889954865,0.0448955930769,-0.0170841217041,-0.0144168753177,-0.018621981144,-0.157037392259
1765456205.1454945,59.33756184577942,0.01371465647582489,-0.11990000635970681,-1.632586990406915,0.0125298975036,0.0262943804264,0.0167255401611,-0.0521719492972,0.02456381917,-0.155092790723
1765456205.3465238,59.538591146469116,0.00897203054698993,-0.11296522642730294,-1.6654934083100976,0.00421579461545,0.0277708284557,0.0291881561279,-0.0396445393562,0.0453747920692,-0.160646483302
1765456205.5463943,59.73846173286438,0.008299509030785215,-0.1157394496572169,-1.7006420746930724,-0.0022443709895,-0.039428845048,-0.00683975219727,-0.0224322080612,-0.0515431277454,-0.173784792423
1765456205.745734,59.937801361083984,0.011623226137515225,-0.11661061958405225,-1.7364397534336995,0.0304837245494,-0.0883353874087,-0.0381307601929,-0.0104695577174,0.0324837863445,-0.169114783406
1765456205.9463294,60.13839673995972,0.011541433802536166,-0.09970680377601956,-1.7695047625797964,0.0415310263634,0.012378115207,0.0591926574707,-0.0437259711325,0.0981323421001,-0.152045503259
1765456206.145854,60.337921380996704,0.0023396429336145293,-0.09915922456638564,-1.8006927757896054,-0.00297453952953,-0.0429479628801,0.0202035903931,-0.0730812549591,-0.0695079639554,-0.145538166165
1765456206.3446257,60.53669309616089,-0.000398972577666441,-0.11161582767009502,-1.8295426667203791,-0.030183698982,-0.0923752561212,-0.0776090621948,-0.000660121499095,-0.0322267413139,-0.127725318074
1765456206.5448,60.73686742782593,0.006861706329102913,-0.11016838297288013,-1.8545408277665714,-0.00196429900825,-0.144317135215,-0.0374183654785,0.0115893790498,0.056713078171,-0.102795660496
1765456206.7454143,60.93748164176941,0.0015914946644583446,-0.1025241785379712,-1.8740193211374656,0.0273536071181,-0.106775529683,-0.010046005249,-0.0828430056572,0.0440605022013,-0.0745430588722
1765456206.9465456,61.13861298561096,-0.012843914111180165,-0.09679110843557355,-1.8880605716687993,-0.0260097440332,-0.0238723829389,0.0742464065552,-0.0723376870155,0.000638514815364,-0.0559776984155
1765456207.147074,61.33914136886597,-0.015084896549157293,-0.10004327753499426,-1.898022791516513,-0.00773426145315,-0.0654757246375,0.112295150757,0.0202327985317,-0.0170722603798,-0.031949583441
1765456207.3477972,61.5398645401001,-0.00604807680642143,-0.10416188112793702,-1.9035159607389651,0.0716563463211,-0.0422542691231,0.124571800232,0.018126513809,-0.0497102737427,-0.0115573415533
1765456207.5463462,61.7384135723114,-0.0075742454817266215,-0.11318348080101334,-1.9031163534173987,0.0315984711051,-0.0194317437708,-0.122854232788,-0.0389024540782,-0.0305920857936,0.0222720168531
1765456207.7468483,61.938915729522705,-0.008585519007994815,-0.10524622877765481,-1.8979568782795337,-0.0353235043585,-0.0975980460644,-0.0907897949219,0.014141947031,0.0843070521951,0.0426374413073
1765456207.9440653,62.13613271713257,-0.0022799972277981364,-0.08667759607080792,-1.8893199805482979,0.0329543352127,-0.0218125283718,-0.0301132202148,0.0237725637853,0.0556759573519,0.0572837889194
1765456208.1442811,62.33634853363037,-0.0034353446481477133,-0.09588272915488275,-1.877395676767468,0.00408929772675,-0.0639321282506,0.0174970626831,-0.0298961997032,-0.104516744614,0.0741444602609
1765456208.3442907,62.53635811805725,-0.003597700466919246,-0.10924671285387415,-1.8630514916621377,0.00125003280118,-0.0562825724483,-0.00880146026611,0.0276721976697,-0.0105932345614,0.0804044157267
1765456208.5448248,62.736892223358154,0.004360940849166964,-0.10521181574294394,-1.8468999522830252,0.0186156947166,-0.049633949995,-0.00195789337158,0.0399373397231,0.0766508355737,0.0938497409225
1765456208.745627,62.93769431114197,0.005495650851663028,-0.0927285976730906,-1.8272590060856362,0.0668150261045,0.0261165779084,0.147960662842,-0.0376194752753,0.0297464430332,0.113045431674
1765456208.947582,63.139649391174316,-0.00822029663311217,-0.0994040772614832,-1.8043366459511063,0.0153589174151,0.0631618201733,0.148266792297,-0.0693351104856,-0.0828102454543,0.124616190791
1765456209.146357,63.33842444419861,-0.01078892226642605,-0.11299265698653077,-1.77966299108374,-0.00897332839668,0.0633745715022,0.0611257553101,0.0470645725727,-0.0503391064703,0.132121890783
1765456209.3458984,63.53796577453613,0.002319642177709114,-0.12010642631132318,-1.7539999718714094,0.0330615788698,0.0133039196953,-0.0326280593872,0.0752367079258,-0.0156328100711,0.134544834495
1765456209.5451963,63.737263679504395,0.008148158257084648,-0.11889541206225848,-1.7269832678769916,0.0597041808069,-0.0352107696235,-0.0982456207275,-0.00614375015721,0.0291310288012,0.146149858832
1765456209.7462173,63.93828463554382,0.0012128944563987436,-0.1037809409011364,-1.698341103511244,-0.0132819404826,0.018903054297,-0.0931100845337,-0.0335022807121,0.103393942118,0.148878261447
1765456209.9448442,64.1369116306305,-0.0035105937731789885,-0.09299790983832486,-1.670341426758478,-0.00890507362783,0.101563669741,0.0559577941895,0.00398382591084,-0.0122666377574,0.141114756465
1765456210.1460261,64.33809351921082,3.4789882408086875e-05,-0.11607548233013605,-1.6448773456795762,-0.0166789405048,0.0814958512783,0.15912437439,0.0312112309039,-0.215052112937,0.124230258167
1765456210.3451111,64.53717851638794,0.007434425883456909,-0.14099771831812585,-1.6217511205636006,0.0085987849161,-0.0988484323025,-0.0682811737061,0.0510849058628,0.0241629797965,0.121343880892
1765456210.546082,64.73814940452576,0.011856936208223793,-0.11141331923632972,-1.5977536422970056,0.0245693363249,0.0543160587549,0.00562381744385,-0.00422149896622,0.203662365675,0.119227923453
1765456210.7470355,64.9391028881073,-0.00039250732499763704,-0.08887601890591153,-1.576846629317393,-0.00481270253658,0.299927055836,0.295528411865,-0.103846214712,-0.049732632935,0.0912286415696
1765456210.9464731,65.13854050636292,-0.020612371655698118,-0.12414346227350385,-1.5634888790798283,-0.0504982434213,0.165227770805,0.0863647460938,-0.069722533226,-0.226295009255,0.045941028744
1765456211.1462114,65.33827877044678,-0.02029037259336692,-0.1541964112595858,-1.5592050513083813,-0.054214566946,-0.0300186686218,-0.179744720459,0.0571481958032,-0.0262856502086,0.00259652733803
1765456211.347911,65.53997826576233,0.0006920226693314152,-0.12908725465258608,-1.5652052864023842,0.00495444983244,0.0636305660009,-0.178817749023,0.0882856622338,0.20810739696,-0.0476390123367
1765456211.5448766,65.73694396018982,0.008037913790928376,-0.09953754324398821,-1.5797671849268284,0.0573800429702,0.157884582877,-0.0454969406128,-0.0529453195632,0.0483758673072,-0.0794187262654
1765456211.7448785,65.93694591522217,-0.010608420281762126,-0.10989832179358928,-1.6005654077759113,-0.0138533534482,0.062158446759,-0.114023208618,-0.129582032561,-0.106066480279,-0.11109264195
1765456211.9458182,66.13788557052612,-0.021161326138363707,-0.12170077763216955,-1.626602601121398,-0.0404163040221,0.0381909310818,-0.0286455154419,-0.00822693202645,-0.003981590271,-0.138062283397
1765456212.1467385,66.33880591392517,-0.009835208909960447,-0.11634223120282111,-1.6577527974437278,0.0431108288467,0.0573554076254,0.103905677795,0.0415898859501,0.0469781532884,-0.158223554492
1765456212.3476057,66.53967308998108,-0.005768243074286752,-0.10945347402300518,-1.6921480555543191,0.0619699023664,0.0900265723467,0.165200233459,-0.059005625546,0.00247284793295,-0.166644155979
1765456212.5454848,66.73755216598511,-0.01489610027411399,-0.11077163057167512,-1.727770764611328,0.0193838961422,0.0174530558288,0.050555229187,-0.0559032037854,-0.00262558483519,-0.173975542188
1765456212.7463684,66.93843579292297,-0.009690207070686739,-0.11151113214974127,-1.7638657852876625,0.00893624965101,0.0229204781353,-0.0363416671753,0.0490747503936,-0.0221878327429,-0.174224421382
1765456212.9463387,67.1384060382843,0.008474497959903486,-0.11283547222556724,-1.7985468005832195,0.0285193324089,-0.113898538053,-0.15111541748,0.065458573401,0.0362269617617,-0.156086683273
1765456213.1435902,67.33565759658813,0.013698528746770399,-0.09609873648642339,-1.8282891167952788,0.0577646531165,-0.14473888278,0.0215606689453,-0.0676840618253,0.0848390161991,-0.132775321603
1765456213.3443666,67.5364339351654,-0.009668866411857878,-0.08492570212672655,-1.8529061794894808,-0.0373352430761,-0.181309580803,0.214921951294,-0.156536713243,0.0181593000889,-0.107124447823
1765456213.5452914,67.73735880851746,-0.024781290267891963,-0.08340091756698009,-1.8727608443643486,-0.142594262958,-0.234530940652,0.208832740784,-0.000549852906261,0.0165618993342,-0.0809416398406
1765456213.7453804,67.93744778633118,-0.006850454473497329,-0.08186359118297504,-1.8886368797286925,-0.0513783767819,-0.189008161426,0.0752449035645,0.11041687429,-0.00649094674736,-0.0615716092288
1765456213.9456923,68.13775968551636,0.010514136056794915,-0.08873494626954298,-1.8987346544758914,0.0514426268637,-0.0951448231936,-0.0534133911133,0.0172220189124,-0.0781297683716,-0.0325888432562
1765456214.144812,68.33687949180603,0.0033395434096415923,-0.11035822474671075,-1.9034846685961566,-0.0420313440263,-0.163707047701,-0.233383178711,-0.0645145848393,-0.0804200768471,-0.00966042280197
1765456214.3464878,68.53855514526367,-0.0037379588105755767,-0.11102082754830088,-1.9057157317993707,-0.0891870856285,-0.1549449265,-0.162753105164,-0.00168532133102,0.0586785338819,-0.00150948762894
1765456214.545695,68.73776245117188,0.0045688822355857625,-0.09396286464742303,-1.907134131395947,-0.0495310276747,-0.191154375672,-0.0107126235962,0.050201267004,0.103010982275,0.0054873530753
1765456214.7452931,68.93736052513123,0.007686090445280193,-0.08182316939105468,-1.9032445846238861,0.0146656762809,-0.17769344151,0.119595527649,-0.0408604778349,0.00745728611946,0.0441856719553
1765456214.9446917,69.13675904273987,-0.0055301153810902864,-0.08905083046434001,-1.892114701796227,-0.0693909823895,-0.13941693306,0.0495901107788,-0.0625059232116,-0.0708013772964,0.071869045496
1765456215.1457205,69.33778786659241,-0.005151987598042416,-0.1049489284538395,-1.875957569778825,-0.0629480928183,-0.123884066939,-0.083215713501,0.0669814646244,-0.0536143817008,0.0970728695393
1765456215.345224,69.53729128837585,0.013314854618663248,-0.11096773077406742,-1.8539927492142332,0.0486549921334,-0.0871386155486,-0.134433746338,0.0913597717881,-0.00172555481549,0.131391733885
1765456215.5454981,69.73756551742554,0.019122591019529386,-0.10835933925628134,-1.8254641686689774,0.0543766878545,-0.0989550724626,-0.0904064178467,-0.0195696968585,0.0258870460093,0.155761107802
1765456215.7459419,69.93800926208496,0.0074535834784000155,-0.10343359811596282,-1.7937192884752329,0.00615364406258,-0.0354382693768,-0.0286903381348,-0.0498667396605,0.0234164297581,0.164660066366
1765456215.9452305,70.13729786872864,0.003021596305297058,-0.10367351564066533,-1.7618589602482333,-0.00598893966526,-0.0489818640053,0.0488510131836,0.0294476784766,-0.0205323155969,0.161446630955
1765456216.147044,70.339111328125,0.01228774100554424,-0.10658534107515232,-1.7294203265905232,0.0595402419567,-0.0389379225671,0.0324325561523,0.0619612671435,0.0101141640916,0.179696828127
1765456216.346773,70.53884029388428,0.01486154159778101,-0.10673901379242828,-1.6925146396783686,0.0766015350819,-0.0192550234497,0.137631416321,-0.0162228941917,-0.0209853071719,0.192815810442
1765456216.5457282,70.73779559135437,0.0045516101795003774,-0.11502409129890799,-1.6534549880765579,0.03432193771,-0.0131409149617,0.0243997573853,-0.0334009639919,-0.0416621640325,0.200941443443
1765456216.7455263,70.93759369850159,0.0029527918220443147,-0.11570710889472925,-1.6147653827082138,0.0249944627285,-6.30971044302e-06,-0.0126962661743,0.0455923341215,0.0295110046864,0.198080405593
1765456216.9446726,71.13673996925354,0.012737720562713257,-0.11117236141432639,-1.576660341199142,0.0594386123121,0.0860026776791,0.0069465637207,0.0593163147569,0.00257715629414,0.19394685328
1765456217.145616,71.33768343925476,0.014196119590505688,-0.11759785340014463,-1.5393249532451032,0.0734690129757,0.0503461584449,-0.0283117294312,-0.0231921691447,-0.0325545668602,0.190909966826
1765456217.3469667,71.53903412818909,0.0004824947320010064,-0.1229554177888411,-1.5037275442184501,0.02119114995,0.0484435595572,-0.00632667541504,-0.0643804743886,0.000488013087306,0.173153728247
1765456217.5463734,71.73844075202942,-0.008100352434923125,-0.11901376460557729,-1.4733154429922357,-0.0113905174658,0.0938183665276,0.0663290023804,0.00444427132607,0.0256113726646,0.140929967165
1765456217.7475622,71.93962955474854,-0.0030420711766973186,-0.12019132289344786,-1.4496130429744214,0.0171234365553,0.0846562460065,0.0878667831421,0.0382773578167,-0.0350385904312,0.104642666876
1765456217.946982,72.13904929161072,-0.0027143418967589222,-0.12462476206150842,-1.431922462801352,0.0244298018515,0.0105343293399,-0.0405130386353,-0.0301256831735,0.0119902212173,0.0780560150743
1765456218.1464682,72.33853554725647,-0.01041612132570699,-0.11667094018274254,-1.4203784584241856,-0.0136168673635,0.131416410208,0.0403432846069,-0.0270918011665,0.0182516854256,0.0467471815646
1765456218.345959,72.53802633285522,-0.010784600871438477,-0.11655044878817328,-1.4150353583291597,-0.00831782817841,0.051006346941,-0.0425720214844,0.0142328450456,0.000894814729691,0.0177346188575
1765456218.546085,72.7381522655487,-0.0055381386740228,-0.11462259479744333,-1.4151830306116047,0.0112316105515,0.0546996705234,-0.0643920898438,0.0102423131466,0.0201933085918,-0.00555962370709
1765456218.7465932,72.93866062164307,-0.00784686943341802,-0.10855276797520516,-1.4200598111997578,0.00783430878073,0.102805651724,0.0275983810425,-0.0545114316046,0.0236757099628,-0.0308632869273
1765456218.9459977,73.13806509971619,-0.02258907176589041,-0.1097386070295902,-1.4305344232412027,-0.0118150375783,0.104109108448,0.0727624893188,-0.101998448372,-0.0193551201373,-0.0613570250571
1765456219.1449656,73.33703303337097,-0.03600978703788431,-0.11005295990676042,-1.4482114212927129,-0.0307475924492,0.0760078877211,0.0314102172852,-0.0498697161674,0.0286780316383,-0.103968381882
1765456219.345352,73.53741931915283,-0.03383041204635858,-0.10474383176038977,-1.4730620432145147,-0.0115454895422,0.12355530262,0.043553352356,0.0202961284667,0.0145517298952,-0.12553781271
1765456219.5466394,73.7387068271637,-0.024686893690816263,-0.10775862166052194,-1.5008912776575156,0.0287325829268,0.0979105234146,-0.045618057251,0.0167064387351,-0.0303834676743,-0.134569421411
1765456219.7460558,73.93812322616577,-0.018932707633806736,-0.11132583439452061,-1.5278569821170584,0.0289768446237,0.015171081759,-0.141657829285,-0.0117659568787,0.0221274811774,-0.121387846768
1765456219.945825,74.13789248466492,-0.017851505843126596,-0.10071518475564284,-1.5520455421918666,-0.0112610403448,0.0792907997966,-0.0714254379272,-0.0141307720914,0.0540010631084,-0.104646392167
1765456220.1469705,74.33903789520264,-0.01652408024550642,-0.10149676427893226,-1.5711477309007325,-0.00713306944817,0.0507264398038,-0.0438823699951,-0.00962615106255,-0.039725009352,-0.0780686736107
1765456220.3463485,74.53841590881348,-0.01727816887232457,-0.10576383910264693,-1.5872393491553183,0.0162375383079,-0.025840125978,0.0327978134155,-0.034745041281,0.0131048280746,-0.0728502944112
1765456220.5450726,74.73713994026184,-0.02481416990438143,-0.10025641364598466,-1.6033691837715467,0.000933872070163,0.0441150739789,0.130942344666,-0.0586643852293,0.0318147242069,-0.0755235552788
1765456220.745736,74.93780326843262,-0.027991961907983264,-0.10227645462232339,-1.6210194170541015,-0.0262341815978,0.0450227409601,0.142476081848,-5.8114535932e-05,-0.0460371412337,-0.0869870185852
1765456220.9465232,75.13859057426453,-0.021072257964062768,-0.10975220579590642,-1.6404430493065398,-0.00239638611674,-0.0099180964753,-0.0157556533813,0.0274337828159,-0.00774562358856,-0.0948742106557
1765456221.147628,75.3396954536438,-0.01203892685832518,-0.10521543597755077,-1.6615913446809136,0.00791964121163,0.0159693416208,-0.0637302398682,0.0278256870806,0.0303126927465,-0.101892665029
1765456221.346422,75.53848934173584,-0.00672621540790188,-0.10312812521655232,-1.6826582804839854,0.000747828744352,0.0125592108816,-0.1151304245,-0.00974088720977,-0.0084921726957,-0.0980183556676
1765456221.5458589,75.73792624473572,-0.00875385523587439,-0.10293555370260438,-1.7030865902576562,-0.00925606582314,-0.0239657461643,-0.0683631896973,-0.0421121753752,0.0133715569973,-0.0952258780599
1765456221.745946,75.9380133152008,-0.013635319242475748,-0.09941067690755956,-1.723481344201592,-0.00961467158049,-0.00081688631326,-0.0272026062012,-0.03761947155,0.0165738165379,-0.0943392440677
1765456221.9459455,76.13801288604736,-0.013377101847954648,-0.1037855431763952,-1.74319765785783,-0.0181505102664,-0.0584192350507,0.0660228729248,0.00223144888878,-0.0406622923911,-0.0874310731888
1765456222.145145,76.33721232414246,-0.0089585430924849,-0.10310772706707799,-1.7615955736164246,0.000898342113942,-0.0829220488667,0.0628633499146,0.00485256360844,0.0534646213055,-0.0803619623184
1765456222.345332,76.53739929199219,-0.007767324660757366,-0.09492854350344257,-1.7782917294384584,0.00156847527251,-0.0221108794212,0.183632850647,-0.0229343771935,-0.001205504057,-0.0733524560928
1765456222.545999,76.73806643486023,-0.009172275293828669,-0.10325164595686157,-1.7930144828927435,-0.0496205277741,-0.0947906896472,0.0359668731689,-0.00710189482197,-0.0547826401889,-0.0609993934631
1765456222.746014,76.93808150291443,-0.0032633158849989033,-0.10597640096952729,-1.8058562456691054,-0.028985960409,-0.0880276337266,-0.0694627761841,0.038114938885,0.0236056707799,-0.05328059569
1765456222.9477127,77.13978004455566,0.006630237578928946,-0.10068838669717392,-1.8160447010514216,-0.000272411853075,-0.103972226381,-0.0670948028564,0.0191904604435,0.00666007446125,-0.0377312339842
1765456223.1464033,77.33847069740295,0.005241846398291973,-0.10087564021132012,-1.8229625282990114,-0.00219359062612,-0.099302969873,-0.0391702651978,-0.0456750392914,-0.0126555589959,-0.0218957662582
1765456223.3462763,77.53834366798401,-0.003957143470147228,-0.10279562123207753,-1.8264343582540932,-0.0469143018126,-0.0943005755544,0.00934600830078,-0.0422716140747,-0.0122278928757,-0.00654161116108
1765456223.545457,77.73752427101135,-0.003014246864941145,-0.1038004069442292,-1.8274622052768092,-0.0734984204173,-0.139265209436,0.018837928772,0.0327877700329,0.0117190210149,0.00835433788598
1765456223.7446358,77.93670320510864,0.006675205990202505,-0.10166307036662929,-1.8255146355716343,-0.0248536001891,-0.143814265728,0.0471086502075,0.0332951545715,-0.000399351149099,0.0226452928036
1765456223.947439,78.13950634002686,0.008041971470550194,-0.10325508309914344,-1.8197994918723244,0.000398396514356,-0.164625614882,0.000849723815918,-0.0238448418677,-0.00666976114735,0.0420175567269
1765456224.1467807,78.33884811401367,0.001102855318922219,-0.10308127022612375,-1.8105826908137235,-0.0558053143322,-0.0851298198104,0.0414524078369,-0.0298678874969,-0.0176548957825,0.0543303824961
1765456224.3474119,78.53947925567627,0.0016930984212340707,-0.11144585141352072,-1.7996898293230814,-0.0566715598106,-0.120091788471,-0.0133390426636,0.0386677719653,-0.0595927238464,0.0633709207177
1765456224.5462356,78.7383029460907,0.012031522022137999,-0.11390334156604018,-1.7864375402646837,-0.0110598979518,-0.129338696599,-0.103119850159,0.0481061637402,0.044768307358,0.0819854512811
1765456224.746563,78.93863034248352,0.015552739051278556,-0.10265093668348056,-1.769345372388555,0.0229149349034,-0.0485878437757,-0.0260047912598,-0.0100985188037,0.0457949973643,0.0951610505581
1765456224.9459047,79.13797211647034,0.00855596572212469,-0.10712164346204542,-1.750101237193588,-0.0105456449091,-0.0249110870063,-0.0401401519775,-0.0415176153183,-0.0877812504768,0.102963320911
1765456225.1461818,79.33824920654297,0.005163484443662342,-0.1206266082512429,-1.7317753599424803,-0.0402221679688,-0.0941983163357,-0.0673456192017,0.0192455984652,-0.0237345751375,0.0928931087255
1765456225.344632,79.53669929504395,0.011472550516762887,-0.1178054384847379,-1.714609555662211,0.00215682666749,-0.0652771219611,-0.0320434570312,0.0404663383961,0.0508271194994,0.0910095945001
1765456225.5470364,79.7391037940979,0.01336711603416415,-0.10901150579534971,-1.6973713134002917,0.04093304649,0.000904337503016,0.0615568161011,-0.0181570667773,0.0223435498774,0.0933535471559
1765456225.7476933,79.93976068496704,0.0056717445765147615,-0.11387054307274017,-1.6801831385668657,-0.00758559908718,-0.0529190972447,0.063515663147,-0.047679245472,-0.0426903367043,0.0910602584481
1765456225.9470086,80.13907599449158,0.00012909293838190764,-0.11580781799582628,-1.663471136936346,-0.016925111413,-0.0705221220851,0.0472621917725,-0.00398159073666,0.0224553048611,0.0853009596467
1765456226.1468782,80.33894562721252,0.00292629154867775,-0.10879628076737928,-1.6474546198245004,-0.00302887056023,-0.000248942524195,0.0373125076294,0.0276394207031,0.0300280749798,0.0837750732899
1765456226.3463485,80.53841590881348,0.004852500569300795,-0.11068261441223921,-1.6318548874232524,0.0277020037174,0.0277352295816,-0.00335311889648,-0.0109627852216,-0.0332579016685,0.0860892310739
1765456226.5461864,80.7382538318634,0.0005058097450696469,-0.12103274863985838,-1.6159945647093399,-0.00912544783205,-0.00926277134567,-0.0353813171387,-0.0109523534775,-0.0444412231445,0.0835798755288
1765456226.7456288,80.9376962184906,0.001145409720309243,-0.12470181064079577,-1.6002190636761464,-0.0155831919983,-0.0491835176945,-0.0535249710083,0.0231377799064,0.0140763819218,0.0861264839768
1765456226.9451013,81.13716864585876,0.00846652408109276,-0.11676179558780628,-1.584422390512287,-0.00119083561003,-0.0399266146123,0.0107421875,0.0453032515943,0.0497601926327,0.0874392539263
1765456227.1464949,81.33856225013733,0.014718897072190942,-0.11279846260879355,-1.5679564649664905,0.0188416577876,-0.0685076937079,-0.0218200683594,0.0185117181391,0.00426769256592,0.0907704457641
1765456227.3454044,81.53747177124023,0.013442544870554142,-0.11507238606080089,-1.5500127513318092,-0.00444136094302,0.0142501667142,0.0529022216797,-0.0211089868098,-0.0715866759419,0.0984139740467
1765456227.5456982,81.7377655506134,0.007084870385924496,-0.12806254516652923,-1.530750107167266,0.00981686171144,-0.062352117151,-0.0476322174072,-0.024943055585,-0.0339135527611,0.107651211321
1765456227.7459688,81.9380362033844,0.005786526299348526,-0.1304865044564489,-1.5102605446885236,-0.0279349982738,-0.00531554687768,-0.0221605300903,0.0316791236401,-0.0174224395305,0.104524947703
1765456227.9462297,82.13829708099365,0.013266039708119936,-0.12603677839384683,-1.4891005314053534,0.00024491455406,0.0580145977437,0.0148706436157,0.043336302042,0.0416912175715,0.114131718874
1765456228.1472979,82.33936524391174,0.016389059018536704,-0.12307433625389154,-1.4667452914249557,0.000212946906686,0.0649024248123,0.0316867828369,-0.00729709863663,-4.76837158203e-05,0.120621182024
1765456228.3464286,82.53849601745605,0.00798161238085977,-0.12557928060808485,-1.4442694102471776,0.00986668746918,0.0229508839548,0.0139942169189,-0.0491231717169,0.00492259860039,0.114404417574
1765456228.547579,82.73964643478394,-0.00014282303410502963,-0.12863637315765725,-1.4242799894211517,-0.0305198598653,0.0296641141176,0.0271081924438,-0.00933259725571,-0.038252774626,0.094253577292
1765456228.746154,82.93822145462036,0.0017780637930177692,-0.13089729705459363,-1.4092614919278135,0.0123872887343,-0.0314421504736,-0.0197973251343,0.0192500669509,0.016263872385,0.0669859424233
1765456228.9450908,83.13715815544128,0.005046405224239734,-0.11909554861817793,-1.39899447329334,-0.0282194465399,0.0580514073372,0.0654344558716,0.00326856970787,0.07578805089,0.0467307828367
1765456229.1450603,83.33712768554688,0.0036173862728168405,-0.11818014525011204,-1.3936150210494342,-0.0256362147629,0.0785441622138,0.0467805862427,-0.0265926122665,-0.0608950816095,0.0206284224987
1765456229.3452923,83.53735971450806,-0.0004639388190092565,-0.13335165799283227,-1.393465085080063,0.00102363992482,-0.0369897335768,-0.065746307373,-0.0295862555504,-0.0457718931139,-0.000533461628947
1765456229.5469902,83.73905754089355,-0.0013602599811770603,-0.12980560906712132,-1.398308309838481,-0.0044594053179,-0.01998282969,-0.00827407836914,0.00431910110638,0.056567043066,-0.0313535369933
1765456229.7473938,83.93946123123169,0.004782109372589987,-0.12207633328014116,-1.4081088758080271,-0.033175341785,0.0450543835759,0.00918102264404,0.0200554747134,0.0249847788364,-0.0526890158653
1765456229.9456797,84.13774704933167,0.008724518331842837,-0.12514837282133162,-1.4217220231941305,-0.00994633883238,-0.00374645460397,-0.0240726470947,-0.0215426143259,-0.0338047742844,-0.0669792369008
1765456230.1476717,84.33973908424377,0.004243432247033445,-0.12474637697716257,-1.437411637282169,-0.0161900892854,0.0348927900195,0.0453252792358,-0.0485539473593,0.0135235507041,-0.0765755921602
1765456230.346583,84.53865027427673,-0.0004875647509336773,-0.12661650695126506,-1.4557536266578717,-0.0164685994387,-0.0119035132229,-0.0105085372925,-0.0273615121841,-0.0359162725508,-0.0902026891708
1765456230.546994,84.73906135559082,0.00022683110480694628,-0.12843708548433524,-1.477158917077438,-0.000251806341112,-0.0481208078563,-0.0390615463257,-0.00800937321037,0.0197239238769,-0.108860433102
1765456230.7465026,84.93857002258301,0.001716527476894313,-0.1175675849098802,-1.5008840871225724,-0.0144307734445,-0.00867140479386,-0.0254573822021,-0.0232502836734,0.0651054084301,-0.118558131158
1765456230.9452577,85.13732504844666,-0.0004398266131152874,-0.1098857799693307,-1.52629690235049,-0.0251499228179,0.0689107701182,0.0489740371704,-0.033788383007,-0.0290229935199,-0.12494327873
1765456231.1455286,85.33759593963623,-0.003189715111040765,-0.12150185614349744,-1.5538662122710993,0.00138159375638,-0.0540193617344,-0.0409002304077,-0.0387057773769,-0.0386431887746,-0.134173080325
1765456231.346245,85.53831243515015,-0.0034820581581433844,-0.12038886286730448,-1.5832470043651805,-0.0213287062943,0.0397428646684,0.0319185256958,-0.0233396887779,0.0200860202312,-0.143907979131
1765456231.5486884,85.7407557964325,-0.0036990147609710215,-0.11408395382221799,-1.6146323578117643,0.0110530760139,-0.018949015066,-0.00537586212158,-0.0372648276389,0.0509850755334,-0.154480352998
1765456231.7462199,85.9382872581482,-0.007147272619513717,-0.1057908202534408,-1.6479463725197836,-0.0152495456859,0.0851332917809,0.10022354126,-0.0456854701042,-0.00748485373333,-0.166891530156
1765456231.946076,86.13814330101013,-0.009869349386778503,-0.1142576418595616,-1.6835740084248092,-0.0236694477499,0.0210480764508,0.00365924835205,-0.0330358743668,-0.0430017746985,-0.175903737545
1765456232.1466658,86.33873319625854,-0.0077754920348660425,-0.1128448931579234,-1.7210361628467357,-0.00915343407542,0.060641463846,0.0419158935547,-0.0089615592733,0.0177897531539,-0.182527303696
1765456232.346433,86.53850030899048,-0.003356309361090132,-0.10827309444885481,-1.7593679725226277,0.0119784614071,0.0805945619941,0.0539264678955,-0.0139564294368,-0.0052303080447,-0.188228517771
1765456232.546757,86.7388243675232,-0.0038332258564177306,-0.11014879209411124,-1.7979245529945225,0.00396310351789,0.0541729405522,0.00404930114746,-0.0456839837134,-0.0358924269676,-0.183528661728
1765456232.7457156,86.9377830028534,-0.006694669952700701,-0.11553838099491591,-1.83647234503482,0.00358934048563,0.0100465957075,-0.0727996826172,-0.0281170066446,-0.018846988678,-0.184203699231
1765456232.9456756,87.13774299621582,-0.0015067130351854021,-0.11729552635977179,-1.8743450257387821,-0.00144215300679,0.02549334988,-0.0768899917603,0.0166185200214,0.00254586338997,-0.179904714227
1765456233.1477084,87.33977580070496,0.007590197920685927,-0.11558725832329728,-1.9098881062791977,0.00414713285863,-0.0239782501012,-0.108058929443,0.00322386668995,0.00439509889111,-0.159731537104
1765456233.3458378,87.53790521621704,0.007834358297929802,-0.1133641346690832,-1.9410734563279166,-0.0176216475666,-0.106278061867,-0.0342292785645,-0.0495746731758,0.0603474713862,-0.137873008847
1765456233.545766,87.73783349990845,-0.005815139156458715,-0.10290263869600667,-1.967387218952608,0.00386466272175,-0.0639046579599,0.197279930115,-0.113320358098,0.0122927129269,-0.118190072477
1765456233.7475939,87.93966126441956,-0.023740283484320605,-0.10748602215581711,-1.9916759138844031,-0.117693141103,-0.189408957958,0.13756275177,-0.0833451747894,0.00123009085655,-0.108617551625
1765456233.946068,88.13813543319702,-0.026621586596001754,-0.09252898542701074,-2.0153627344098406,-0.047113019973,-0.0540907718241,0.0881452560425,0.0168614089489,0.0879891291261,-0.106087327003
1765456234.1448264,88.33689379692078,-0.015475442881233608,-0.0938068283746796,-2.0370483225341376,0.0164260789752,0.0361000187695,-0.0562334060669,0.04508420825,-0.109550379217,-0.0986918881536
1765456234.346064,88.53813147544861,-0.005152602933895847,-0.11743807205711829,-2.0571043223874153,-0.0211492292583,-0.0710496678948,-0.246657371521,0.0208429954946,-0.0934019610286,-0.0929892063141
1765456234.5474455,88.73951292037964,-0.004066330994245875,-0.12042042132622192,-2.0779595368838257,0.0167857501656,-0.101745173335,-0.160875320435,-0.0571638345718,0.058276206255,-0.100564964116
1765456234.7470946,88.93916201591492,-0.026274200118341536,-0.10429420694460033,-2.099107299625982,0.0382079929113,0.00245552510023,0.0225658416748,-0.169253379107,0.0515200309455,-0.0971496254206
1765456234.9462442,89.13831162452698,-0.04889832574208011,-0.09941729319839272,-2.119941075675617,-0.0737958028913,-0.0104082282633,0.109629631042,-0.0550285056233,0.0219859201461,-0.103145860136
1765456235.1464374,89.33850479125977,-0.037787263973187254,-0.09628420068921219,-2.142629876582547,-0.0197922904044,-0.00676743220538,0.149814605713,0.0987090244889,0.0260137058794,-0.110946618021
1765456235.3467305,89.5387978553772,-0.018130261827257632,-0.11114434828861011,-2.1654057628571226,0.0187913831323,-0.0644186288118,0.0605163574219,0.0345401465893,-0.096920132637,-0.109781332314
1765456235.5466378,89.73870515823364,-0.01700695400332712,-0.1179651698934938,-2.187565127339345,-0.0542421638966,-0.0726044848561,-0.0557222366333,-0.0400319732726,0.0539772212505,-0.100502379239
1765456235.746181,89.9382483959198,-0.02244413754594125,-0.10240461924978345,-2.209368693499933,-0.0311439447105,0.0329866558313,0.0692834854126,-0.0297322906554,0.0626958981156,-0.0990763530135
1765456235.9442399,90.13630723953247,-0.01721559811057262,-0.09159106170297687,-2.23003695408782,0.0585089102387,0.124890893698,0.14349937439,0.0354252830148,-0.0115126399323,-0.0957638174295
1765456236.1455667,90.33763408660889,-0.005629253633263088,-0.11220967930366905,-2.2497503382668587,-0.05454294011,-0.00980077311397,-0.150902748108,0.0551231279969,-0.0988200455904,-0.0869319066405
1765456236.346024,90.53809142112732,0.00833215199963875,-0.11227277125436871,-2.267846784190056,0.0482650026679,-0.0168451815844,-0.1010389328,0.0189505536109,0.060722976923,-0.0808328464627
1765456236.547507,90.73957443237305,-0.0007200538702132878,-0.10576646065184497,-2.28397382248714,0.0382133163512,-0.0146029749885,-0.0201406478882,-0.133880987763,0.020707398653,-0.0678405165672
1765456236.7460988,90.93816614151001,-0.023977829131177266,-0.108533601537735,-2.29856901052521,-0.0333106517792,0.0669633969665,0.0321254730225,-0.093799829483,-0.0502750314772,-0.0671863555908
1765456236.9488895,91.14095687866211,-0.021114375440583453,-0.11467371916799443,-2.313145290119541,-0.12301120162,-0.0335637927055,-0.0222206115723,0.078374914825,0.0547446422279,-0.062620639801
1765456237.146651,91.33871841430664,-0.004391735729865607,-0.10370802854391707,-2.3261140856799,0.0858175233006,-0.0310395732522,0.110080718994,0.00452920841053,-0.0191539525986,-0.048762563616
1765456237.3463748,91.53844213485718,-0.014774632040379257,-0.10809595262447251,-2.3356772308382654,-0.0629879683256,-0.0429878719151,-0.0574216842651,-0.104223191738,-0.0260993856937,-0.0344693697989
1765456237.5460682,91.73813557624817,-0.02839121968965658,-0.11087670892143556,-2.3441846989405235,0.00998203456402,0.0265409238636,0.0684566497803,-0.0561595074832,-0.0767573863268,-0.0383615531027
1765456237.7481754,91.94024276733398,-0.02519079705857288,-0.12415937466101708,-2.3526181311644776,-0.126226350665,-0.0562656447291,-0.0932416915894,0.0693358555436,0.0343926288188,-0.0407144427299
1765456237.9465268,92.13859415054321,-0.00629924930762143,-0.1032761636836471,-2.362319494383418,0.0759162455797,-0.0411828644574,0.0201053619385,0.049514323473,0.127352043986,-0.0406205654144
1765456238.145609,92.33767628669739,-0.014550845365623137,-0.1028685918459457,-2.370821636163496,0.140968695283,0.0739554315805,0.0865097045898,-0.136050567031,-0.165364146233,-0.0300645828247
1765456238.347084,92.53915143013,-0.030041620148476115,-0.13152631073693513,-2.378609251823106,-0.19869042933,-0.0445367060602,-0.198870658875,0.0117562711239,-0.0270217675716,-0.0391528010368
1765456238.546742,92.73880934715271,-0.00978164608253623,-0.10606649071577763,-2.3887569608407437,0.158859923482,0.0210002884269,0.192076683044,0.0768080428243,0.145711019635,-0.0426016747952
1765456238.7461689,92.93823623657227,-0.01369190725445073,-0.10254312027122439,-2.396908896937476,0.0982433184981,-0.0013762852177,0.11925983429,-0.113514073193,-0.0670403242111,-0.0301301497966
1765456238.9444005,93.13646793365479,-0.030375776125064605,-0.11411041066317223,-2.4037644062155583,-0.0568034350872,0.0431306436658,-0.0181074142456,-0.0349432267249,-0.018472969532,-0.0294148921967
1765456239.1466298,93.3386971950531,-0.0197322863809948,-0.11662679828767449,-2.411185837225282,-0.0389360710979,-0.00330582261086,-0.0628957748413,0.0920258387923,0.00292882276699,-0.0322908125818
1765456239.3460586,93.53812599182129,-0.0019597798046317423,-0.11315315405410006,-2.4179260316281637,-0.00227416167036,-0.0748479291797,-0.0836315155029,0.0259481426328,0.0263564307243,-0.0212818384171
1765456239.546163,93.73823046684265,-0.010702567187485629,-0.10984573268443863,-2.4228283785627815,0.0762776434422,-0.0355422385037,0.056676864624,-0.13220462203,-0.034533444792,-0.0120252389461
1765456239.7454205,93.93748784065247,-0.03480330224326735,-0.11715692546978998,-2.4261980762900586,-0.0941644906998,0.00860544387251,-0.0226755142212,-0.075951218605,-0.0214248914272,-0.015485287644
1765456239.945102,94.1371693611145,-0.029453213430974522,-0.12140322763700204,-2.4305171909459493,-0.0685463175178,-0.0150260981172,-0.031644821167,0.0989697948098,0.00468865036964,-0.0206157583743
1765456240.1480222,94.34008955955505,-0.005859852174744925,-0.10952680249914483,-2.435152422823232,0.0440681539476,-0.0857620388269,0.0756607055664,0.0645361840725,0.110448151827,-0.0106230387464
1765456240.3463666,94.53843402862549,-0.01629573290738354,-0.10562817601224261,-2.4365569739821398,0.0357064753771,-0.0295299217105,0.0685586929321,-0.155773758888,-0.085715956986,0.00830963253975
1765456240.5461402,94.73820757865906,-0.03576021139304105,-0.11755688233124945,-2.4361947840738893,-0.0965187996626,0.0428177192807,-0.0208196640015,-0.0175759214908,-0.0322356820107,0.00539794564247
1765456240.7455127,94.93758010864258,-0.01521131139655739,-0.11517283716816731,-2.4366110361522684,-0.0265414789319,-0.0190428458154,-0.0143775939941,0.155828148127,0.019038470462,0.00413730740547
1765456240.9465966,95.13866400718689,0.005495327319202476,-0.11656070195837008,-2.435212343947759,-0.0379983112216,-0.124169848859,-0.0913000106812,0.0146694490686,-0.0161603111774,0.019674744457
1765456241.146958,95.33902549743652,-0.006370470661578286,-0.11057189348991918,-2.430305735955397,-0.0707449689507,-0.0691910013556,-0.0766754150391,-0.119200356305,0.0515393912792,0.0351019240916
1765456241.3471065,95.53917384147644,-0.022090679893233493,-0.0975837567221436,-2.4237104175158155,0.00578565523028,0.0595199279487,0.131958007812,-0.0266954321414,0.0260226428509,0.0426344573498
1765456241.5474613,95.73952865600586,-0.012970797092365628,-0.10922611496731807,-2.4167760786694674,-0.0561038851738,0.007035699673,0.0193424224854,0.106386117637,-0.0923708081245,0.04312023893
1765456241.7461655,95.93823289871216,0.011761196607332745,-0.11590268478728194,-2.408265947406119,-0.0179600268602,-0.0743302032351,-0.0617523193359,0.0985927954316,0.036599483341,0.0538431107998
1765456241.9458737,96.13794112205505,0.013014512465540359,-0.10551611518699912,-2.3966178134303306,0.0426831766963,-0.0253520905972,0.0534210205078,-0.0834718346596,0.0421054698527,0.0675268471241
1765456242.1463113,96.33837866783142,-0.009392013131490027,-0.10592504357238079,-2.385026404785761,-0.0974979475141,0.0285112522542,-0.017388343811,-0.0850915908813,-0.0159099716693,0.0584237314761
1765456242.3454762,96.53754353523254,-0.008081971942063724,-0.10502981364957224,-2.376257680580566,-0.0838744491339,0.0505699291825,-0.0113363265991,0.0918172374368,0.0208251178265,0.0422887541354
1765456242.5464504,96.73851776123047,0.014390195374350611,-0.10258417456390363,-2.371596882356818,-0.00652631279081,-0.0061422935687,0.0231456756592,0.0786118209362,-0.00172555469908,0.0202186424285
1765456242.746038,96.93810534477234,0.013027024121177228,-0.10830650047577849,-2.3706884781089923,0.0226842351258,-0.0138083584607,0.0309867858887,-0.0997751951218,-0.0538975037634,-0.00308305025101
1765456242.9469743,97.13904166221619,-0.009298173113470263,-0.11626558209769727,-2.373336991813076,-0.106067270041,0.0469080395997,-0.0431613922119,-0.0883161872625,0.00108256947715,-0.0159710627049
1765456243.1443043,97.33637166023254,-0.008213207007007135,-0.1118577592103719,-2.3801834463434517,-0.0104911047965,0.0854016244411,0.0948152542114,0.0569768287241,0.0221081078053,-0.0389829315245
1765456243.345287,97.53735446929932,0.006454949044188041,-0.11051333723545106,-2.390210780479818,0.0242595095187,-0.00114610884339,0.0353393554688,0.031591206789,0.00427290797234,-0.0427216328681
1765456243.5473459,97.73941326141357,0.004252838875301714,-0.1111185822050636,-2.400182720865511,-0.0503025874496,-0.0238347444683,-0.0592746734619,-0.0583559349179,0.0426523424685,-0.0419557094574
1765456243.7464802,97.93854761123657,-0.009023676106488751,-0.10504942117309796,-2.4096910049054205,-0.0252521708608,0.0390171781182,-0.0123100280762,-0.0769942998886,0.0215254779905,-0.0439032949507
1765456243.9444683,98.13653564453125,-0.013874345232391465,-0.1051925327921761,-2.4198104844155037,0.0215001665056,0.0480356961489,0.0881614685059,-0.00470131682232,-0.0614836812019,-0.0468865074217
1765456244.145555,98.33762240409851,-0.009042472198119825,-0.12002440927212714,-2.430220781116623,-0.094833239913,-0.0771308764815,0.0124845504761,0.0164143759757,-0.0407666005194,-0.0417873263359
1765456244.3463595,98.53842687606812,-0.006997567596143036,-0.11392577037584568,-2.43880388299384,-0.0746333301067,-0.0735002607107,-0.0386333465576,-0.0200286526233,0.0816650688648,-0.0316336713731
1765456244.5478861,98.73995351791382,-0.014422525733865252,-0.10186017757680878,-2.445598672199068,-0.0326923020184,0.000735523644835,-0.0384283065796,-0.0546157434583,0.0244192797691,-0.0251069720834
1765456244.745248,98.93731546401978,-0.01801629101616985,-0.11036675518457742,-2.4525071783828425,0.00119075994007,0.0373822040856,0.0474109649658,-0.00555515335873,-0.111144796014,-0.0299170631915
1765456244.9457066,99.1377739906311,-0.008534712968417747,-0.12854598380578428,-2.4597962502863893,-0.0626485869288,-0.0317988470197,-0.0865468978882,0.0663541257381,-0.0362738966942,-0.031450394541
1765456245.1447203,99.33678770065308,0.0035425519663342645,-0.11771948496055559,-2.4665289878382186,0.0992786735296,-0.00967784970999,0.0528602600098,-0.00645518349484,0.0754855573177,-0.0226408261806
1765456245.3482342,99.54030156135559,-0.008121486594737775,-0.10967861932603616,-2.4710845911989083,0.139918714762,0.108164340258,0.114956855774,-0.10474473983,-0.0230371914804,-0.0106409192085
1765456245.5463266,99.73839402198792,-0.018366090983567954,-0.11631456761699792,-2.4731405515604497,0.0221275631338,0.112870909274,0.0623197555542,0.0163026172668,0.00451877713203,0.00188425218221
1765456245.746354,99.93842148780823,2.260650558820607e-05,-0.1168604324166801,-2.471949585920966,0.128139257431,0.0923366546631,0.139566421509,0.112176686525,-0.0131264328957,0.0207729656249
1765456245.945943,100.13801050186157,0.012629142652832886,-0.12373831224791873,-2.46630315177778,0.101737879217,-0.0185120739043,-0.0785045623779,-0.00391155481339,-0.0183612126857,0.0463835895061
1765456246.147109,100.3391764163971,0.005072161945110543,-0.1175728363306547,-2.455543448341642,0.0930080637336,0.0695694237947,-0.107261657715,-0.0548750162125,0.0697262659669,0.0688768997788
1765456246.3461845,100.53825187683105,-0.0050817503653321295,-0.11680799311034075,-2.442069983754713,0.0855894610286,0.099589318037,-0.0588340759277,-0.0297695435584,-0.0690102651715,0.0702634453773
1765456246.5465991,100.73866653442383,-0.00036359964113053954,-0.12413487357898835,-2.4288884016232566,0.0164256785065,0.0278036464006,-0.150953292847,0.0697143450379,0.0217907149345,0.0721447169781
1765456246.748851,100.94091844558716,0.011984436085708637,-0.11451507799080977,-2.4166756774963716,0.139287397265,0.0575504042208,-0.00948524475098,0.019662829116,0.0290699340403,0.060162704438
1765456246.946953,101.13902044296265,0.00031412940830629737,-0.12815557271235706,-2.406949280563184,0.0230129286647,0.00098489690572,-0.0459308624268,-0.116954743862,-0.136055067182,0.0472821332514
1765456247.1454241,101.33749151229858,-0.016031168659030186,-0.12885335420747146,-2.400383256895594,-0.0479283556342,0.0145284458995,0.0246181488037,-0.0337019562721,0.0931583419442,0.0310353934765
1765456247.3466916,101.5387589931488,-0.013729774076200293,-0.10110300758938563,-2.397769896917899,0.1331859231,0.0720412433147,0.31143283844,0.014391541481,0.089268386364,0.0129863629118
1765456247.5467207,101.73878812789917,-0.01812653132113692,-0.10638535432204417,-2.398778702338821,0.0144734950736,-0.0431586392224,0.19033241272,-0.0693172067404,-0.108975179493,-0.00825226306915
1765456247.7483568,101.94042420387268,-0.025571583321372975,-0.11765794929461795,-2.4034831764044458,-0.0540618561208,-0.0236076768488,0.0285415649414,-0.0140085825697,-0.015415251255,-0.0275015830994
1765456247.9454768,102.13754415512085,-0.016113629905173666,-0.12316834584037134,-2.4125576315027817,-0.0271723661572,-0.0280779320747,-0.0228309631348,0.0680558234453,-0.0294953566045,-0.0485718250275
1765456248.147062,102.33912944793701,-0.0015686821149859965,-0.12252297868446108,-2.4244806037030666,-0.0264903176576,-0.11399295181,-0.0760555267334,0.0331662632525,0.051995370537,-0.0564351677895
1765456248.346243,102.53831028938293,-0.006262821737187539,-0.1143925392911525,-2.436702648893767,-0.0708015188575,-0.160390540957,-0.0302124023438,-0.10227560997,0.0473924018443,-0.0522285699844
1765456248.5450058,102.73707318305969,-0.027222474800518495,-0.107860396026055,-2.4472698057830926,-0.114866696298,-0.0535337589681,0.0294551849365,-0.0952109694481,0.00490918802097,-0.0451520122588
1765456248.7455106,102.93757796287537,-0.02660952538909614,-0.11311554522608111,-2.457068374381821,-0.115866653621,-0.0517608374357,-0.0533113479614,0.070526458323,-0.0701919198036,-0.0429153554142
1765456248.9470854,103.13915276527405,-0.004281926368055399,-0.1243025944710145,-2.4645103117319387,-0.115399740636,-0.144656300545,-0.161270141602,0.0933490619063,-0.0159621257335,-0.0180557370186
1765456249.1469831,103.33905053138733,0.004267860768325442,-0.11810084130627653,-2.4671606896487854,-0.0197696033865,-0.144509702921,-0.0785713195801,-0.0471413061023,0.0582523606718,0.00691041350365
1765456249.347017,103.53908443450928,-0.017871847816546677,-0.10989074842923938,-2.4643334778355572,-0.0438330769539,-0.077286221087,0.0163583755493,-0.148463264108,0.0151298958808,0.029718130827
1765456249.546581,103.73864841461182,-0.036429725929897766,-0.11146809713100128,-2.4586502920693283,-0.0374291017652,0.0124561367556,0.0475873947144,-0.023069979623,-0.0390499830246,0.0340543724597
1765456249.7467704,103.93883776664734,-0.02291550873650687,-0.1180858194132528,-2.4527202312700487,0.00880157761276,-0.0409194268286,0.0467290878296,0.103475905955,-0.0321283973753,0.0400386750698
1765456249.9461982,104.13826560974121,-0.009932585938802974,-0.1251954774831124,-2.4430963660388296,-0.0121552785859,-0.160243272781,-0.0349884033203,0.00311657786369,-0.00973045732826,0.0658862292767
1765456250.1456378,104.33770513534546,-0.024087543045710126,-0.11528075344896438,-2.4287171603651645,-0.0235727932304,-0.112327441573,0.0236644744873,-0.112965717912,0.0832922831178,0.0918574854732
1765456250.3456402,104.53770756721497,-0.0415572015227898,-0.10348806808263335,-2.4108076683504907,-0.00144067418296,-0.0169142372906,0.104433059692,-0.0345945432782,-1.04308137452e-05,0.101596876979
1765456250.5458956,104.7379629611969,-0.03332226010442545,-0.11099184902668945,-2.390375363835185,-0.0131055321544,-0.0981466844678,0.0554618835449,0.102288290858,-0.0642195343971,0.112234808505
1765456250.7476976,104.93976497650146,-0.015599880123464862,-0.11978772915262476,-2.366964047324516,-0.0141380531713,-0.112547002733,-0.103434562683,0.0699065700173,-0.016263127327,0.127751395106
1765456250.9464707,105.13853812217712,-0.009812586604856986,-0.10833438044344026,-2.341901038305781,0.180984020233,-0.0344647094607,0.078405380249,-0.0146597642452,0.0803761258721,0.13405905664
1765456251.146442,105.33850932121277,-0.02427854995251765,-0.11343550738629732,-2.3150140302564495,0.0310318917036,-0.0360311716795,-0.0399694442749,-0.0800356343389,-0.0663623213768,0.137522831559
1765456251.3468492,105.53891658782959,-0.03306263726825095,-0.1075819458893304,-2.290355821723406,0.0341490581632,-0.0130079686642,-0.0347032546997,0.009457022883,0.113981224597,0.120616719127
1765456251.5468593,105.73892664909363,-0.026859269562102123,-0.09245039720771818,-2.270154679590719,0.144522875547,0.0476185008883,0.160323143005,0.0261299367994,-0.00356435822323,0.100942708552
1765456251.745946,105.9380133152008,-0.02812272727869536,-0.10589008126069509,-2.252482208913062,0.00713372696191,-0.0443912819028,-0.0790100097656,-0.0234499536455,-0.0565946139395,0.0795476064086
1765456251.9456074,106.1376748085022,-0.03196030495879671,-0.10523918804552292,-2.241110511058424,0.0787776336074,0.0162109956145,0.0257081985474,-0.0170618314296,0.0281848050654,0.0462420322001
1765456252.1461546,106.33822202682495,-0.03388917844088146,-0.10042978543294882,-2.2363213484701343,0.0457753762603,0.0307431444526,-0.0558662414551,-0.00395625829697,0.0502236187458,0.0127010056749
1765456252.3460379,106.53810524940491,-0.032528754612879525,-0.09412854655673959,-2.2390947644293426,0.149422705173,0.0709224268794,0.100979804993,-0.0115111470222,-0.00735223339871,-0.0262916088104
1765456252.5462317,106.73829913139343,-0.038993992197372596,-0.10769342414808544,-2.2480608288713126,0.0513357594609,0.0176226254553,-0.0162601470947,-0.0599846281111,-0.0613570287824,-0.060798227787
1765456252.747458,106.93952536582947,-0.042751616788122726,-0.10583968093706535,-2.26652505734105,0.0148027800024,0.0410846546292,-0.0150108337402,0.00534579204395,0.0762619078159,-0.105854876339
1765456252.945601,107.13766837120056,-0.030778995358859414,-0.09761367567251497,-2.2919486583713824,0.193883359432,0.169795289636,0.150124549866,0.0468887388706,-0.0396177172661,-0.127302125096
1765456253.1461809,107.33824825286865,-0.021850720756638947,-0.126315669616627,-2.318625543010706,0.0144332703203,-0.0421873293817,-0.172649383545,-0.00445991754532,-0.127008542418,-0.133746832609
1765456253.3482287,107.54029607772827,-0.021310294631245414,-0.12168340882843519,-2.349026592118397,0.0585543625057,-0.00243720132858,-0.102203369141,-0.0417083613575,0.139790058136,-0.144949585199
1765456253.5456152,107.73768258094788,-0.027437986950543954,-0.10010720172353456,-2.378788482564468,0.175884708762,0.135927826166,0.165837287903,-0.0709861591458,0.0171028077602,-0.132262721658
1765456253.7470276,107.93909502029419,-0.03368312883510419,-0.11773338333249445,-2.405333540729833,0.0181905068457,0.0562706962228,-0.0342035293579,-0.0154331335798,-0.121626280248,-0.126907229424
1765456253.946849,108.13891649246216,-0.02248568493954109,-0.12332025421342514,-2.431417339394396,0.0229403879493,-0.0180406495929,-0.039945602417,0.0660680234432,0.0591211058199,-0.120443120599
1765456254.1466098,108.33867716789246,-0.013034172003931109,-0.11259146841306714,-2.4550662098742997,0.13547308743,0.0104709882289,0.0516557693481,-0.0315025448799,0.0132486233488,-0.0992044880986
1765456254.3458686,108.53793597221375,-0.02459719509635103,-0.11923265980242499,-2.473558135219374,0.00897827837616,-0.0230801180005,-0.0294351577759,-0.0847354605794,-0.0451475307345,-0.0791326239705
1765456254.5446734,108.73674082756042,-0.031139641465915784,-0.1219282032668839,-2.4895821091822716,-0.0254588313401,0.0057341880165,-0.0139398574829,-0.00700652645901,0.0120393941179,-0.0675931572914
1765456254.7475164,108.93958377838135,-0.02304713963457324,-0.11669655646347775,-2.503688607160312,0.0160817690194,-0.0418956503272,0.0658388137817,0.0282414257526,0.0259511191398,-0.0515803694725
1765456254.9474382,109.13950562477112,-0.020019058896125895,-0.11563909009601295,-2.5136813202025077,0.0166025217623,-0.0409324541688,0.0581769943237,-0.0223457831889,0.00481009483337,-0.0332444906235
1765456255.1465914,109.33865880966187,-0.026890012427935726,-0.11863627816581537,-2.5192867416649065,-0.0295738112181,-0.0345017872751,0.0312385559082,-0.0436052680016,-0.013825298287,-0.0165253840387
1765456255.3449607,109.53702807426453,-0.027254867577871184,-0.11631038978303786,-2.5223368600613743,-0.0641330182552,-0.0212783105671,-0.00284099578857,0.0225804764777,0.0402592159808,-0.00459849927574
1765456255.546676,109.7387433052063,-0.017846135828459803,-0.11149843220029296,-2.523375226570396,0.0217376835644,-0.0433409921825,0.105577468872,0.0285528600216,-0.0362262167037,0.00719949696213
1765456255.7451792,109.93724656105042,-0.019591471738356857,-0.12677836888889302,-2.5210425637715956,-0.0828740671277,-0.0623904392123,-0.0424528121948,-0.0402331277728,-0.0472694672644,0.022058935836
1765456255.945638,110.13770532608032,-0.02398258745103118,-0.11893060740053957,-2.5187112325533403,-0.0666573420167,-0.0478372909129,-0.0180082321167,-0.00532567547634,0.124035045505,0.0186152774841
1765456256.1449926,110.33705997467041,-0.020843525715938588,-0.10320280191799383,-2.516214519031391,0.062001530081,0.00200312351808,0.0900468826294,0.0172756649554,0.00156387710012,0.0239767152816
1765456256.3492289,110.5412962436676,-0.01757780778447211,-0.11758929799514276,-2.5126871621675813,-0.0683111846447,-0.0607469603419,-0.124652862549,0.015277418308,-0.0772267580032,0.0153951374814
1765456256.5472639,110.73933124542236,-0.015395796679586125,-0.115000014658178,-2.512687694799799,-0.026728797704,-0.0637570545077,-0.088433265686,-0.0160872936249,0.0765688791871,-0.00462532090023
1765456256.7477005,110.93976783752441,-0.023765847750190763,-0.10423420259628949,-2.5165463489032147,0.0896025970578,0.0187399797142,0.069130897522,-0.0856444314122,-0.0197097659111,-0.0181064028293
1765456256.9505754,111.14264273643494,-0.038292994103004095,-0.11799983259955688,-2.523986688356678,-0.0580298230052,-0.0143763497472,-0.0684471130371,-0.0608101524413,-0.0437557660043,-0.052148103714
1765456257.1473827,111.3394501209259,-0.0366640300103651,-0.11365856377234826,-2.5396809629766244,0.0021032220684,0.00926604308188,0.0486516952515,0.0185556709766,0.072421900928,-0.0867009162903
1765456257.3479376,111.54000496864319,-0.02960000770249753,-0.10993037127283271,-2.560810483065313,0.0883957520127,0.0514721050858,0.088773727417,0.00301823066548,-0.0310525353998,-0.108754657209
1765456257.5467181,111.7387855052948,-0.029366906205709937,-0.12347788838282261,-2.5848745403591598,-0.0270831231028,0.0121228508651,-0.00936222076416,-0.0344567000866,-0.0534392930567,-0.124040991068
1765456257.7493591,111.94142651557922,-0.028016057274064674,-0.11964707263517654,-2.6123583628087776,0.0411587692797,0.0453590415418,0.00996780395508,-0.0024676322937,0.0588156357408,-0.131431236863
1765456257.9465165,112.13858389854431,-0.02170789001783203,-0.11405735550083082,-2.640355909032672,0.0775493755937,0.034168176353,0.0213451385498,0.00746473670006,-0.00316053652205,-0.130093097687
1765456258.145159,112.33722639083862,-0.020243297059910566,-0.12221941993208407,-2.6668929777147663,0.0426073074341,0.00609142007306,-0.0326070785522,-0.0358164310455,-0.0537633933127,-0.121586032212
1765456258.3453925,112.53745985031128,-0.02444697616611375,-0.12568208694854033,-2.6926457454558324,0.0791400820017,0.0309270452708,0.0190420150757,-0.0517100133002,0.00964924693108,-0.120915479958
1765456258.5463443,112.73841166496277,-0.029590726169979684,-0.12084462959835791,-2.718313025725907,0.146066114306,0.00170796411112,0.0985164642334,-0.0608563423157,0.029955804348,-0.116628415883
1765456258.7484221,112.94048953056335,-0.03860914461391013,-0.12360948183018615,-2.742484408411684,0.0100979031995,0.00364216975868,0.0722236633301,-0.0653386116028,-0.0334829203784,-0.110068932176
1765456258.9478996,113.13996696472168,-0.03875734120619463,-0.12012688271744634,-2.7659146333660924,-0.00332812499255,0.00860240496695,-0.00153064727783,0.012449176982,0.0526003651321,-0.105209670961
1765456259.1467333,113.33880066871643,-0.02633007240577356,-0.1198684895126814,-2.7873600043600644,0.0869995877147,0.0220763031393,-0.0448293685913,0.0566340982914,-0.042641159147,-0.0962883234024
1765456259.3451366,113.5372040271759,-0.016098745331393646,-0.1382604963826072,-2.806198673279067,0.0187304541469,-0.0404646024108,-0.155559539795,-0.000725686608348,-0.0692591145635,-0.0859200954437
1765456259.5460284,113.73809576034546,-0.021884634448645423,-0.1425635904600652,-2.8239861925158154,0.0385046452284,-0.0185436792672,-0.0994453430176,-0.0881105661392,0.0275291521102,-0.0761747360229
1765456259.7454157,113.93748307228088,-0.03358564257504508,-0.1294815522967291,-2.8401896635361843,0.12813603878,0.0311891250312,0.059681892395,-0.0554427430034,0.0860996469855,-0.0635683462024
1765456259.9479067,114.13997411727905,-0.03485055670785945,-0.1209457964302673,-2.852575226817816,0.106756135821,0.0505368039012,0.1052942276,0.0339813530445,0.0174872558564,-0.0435441657901
1765456260.1468139,114.33888125419617,-0.0183854862864443,-0.12589862691229897,-2.8595300720045578,0.0248541329056,0.0165020879358,0.0256080627441,0.0975288525224,-0.0176846999675,-0.0119119882584
1765456260.3483396,114.54040694236755,-0.0030512723462486776,-0.12745035933332569,-2.858975601865603,0.00708208186552,-0.0580309703946,0.0317459106445,0.0248230993748,0.0310249645263,0.0296331942081
1765456260.5475285,114.73959589004517,-0.006920199645584332,-0.11300190314894039,-2.8496031390412875,0.0746358260512,-0.00427758228034,0.108160972595,-0.0603452324867,0.0552766062319,0.0747434869409
1765456260.7458162,114.93788361549377,-0.017320178157925966,-0.10573466916633216,-2.832208169749217,0.0409994907677,0.0322000794113,0.0294342041016,-0.0151753425598,-0.012128056027,0.108347088099
1765456260.9470372,115.13910460472107,-0.009275752626043158,-0.11559141119012212,-2.809927365121287,0.0118487980217,0.0259269792587,-0.0778036117554,0.0913195312023,-0.0751137733459,0.126088425517
1765456261.1462183,115.33828568458557,0.007759522951149925,-0.12369196492257295,-2.7841911089789795,-0.0483781509101,-0.0548842698336,-0.193552017212,0.0693388357759,0.0415690243244,0.138030216098
1765456261.3455856,115.53765296936035,0.000227026583171627,-0.11398968624200759,-2.754432414326216,0.0319161787629,-0.041468501091,0.0150184631348,-0.115475066006,0.0321455225348,0.163839012384
1765456261.5461469,115.73821425437927,-0.030186121604748133,-0.11525125061751335,-2.7210475595332007,-0.0919773280621,0.0536270551383,0.0474348068237,-0.0962689518929,-0.0239923652261,0.172077894211
1765456261.7480462,115.94011354446411,-0.02593527958011533,-0.11366739381583756,-2.6876768194939626,-0.0663131549954,0.0644607543945,0.107043266296,0.144305080175,0.0159732997417,0.168753430247
1765456261.9470649,116.13913226127625,0.00573720580431702,-0.11135701002403135,-2.6545002238981916,0.0321790575981,-0.0317886583507,0.112512588501,0.13466103375,-0.0109851341695,0.175177291036
1765456262.1465561,116.33862352371216,0.008254410062200403,-0.11715948043996077,-2.61899096550362,-0.0194544494152,-0.068781234324,-0.0394649505615,-0.0702857971191,-0.0198826212436,0.192397102714
1765456262.3468242,116.53889155387878,-0.010922312307228094,-0.11500651443571347,-2.5820342790565904,-0.0287662614137,0.0252853967249,-0.0312671661377,-0.054541233927,0.0195167958736,0.186007484794
1765456262.546697,116.73876428604126,-0.009533673535833526,-0.11910726652697429,-2.546871231603729,-0.0285887420177,0.0481030903757,-0.00391960144043,0.0846959874034,-0.0665337070823,0.171569764614
1765456262.7457569,116.93782424926758,0.010728122090680081,-0.12283244632550669,-2.513693570743522,-0.0182419437915,-0.0816933140159,-0.0319948196411,0.108381383121,0.0373370945454,0.171019896865
1765456262.9463334,117.13840079307556,0.01428101617263037,-0.11300273538678103,-2.4800248229783044,0.0532445274293,-0.00742078991607,0.0604104995728,-0.0402972139418,0.0340066850185,0.17297193408
1765456263.1463706,117.33843803405762,-0.0021621699045790816,-0.12051813437109261,-2.447891653897626,-0.0432482995093,0.0186084061861,-0.0251665115356,-0.066475585103,-0.0803947672248,0.15811252594
1765456263.347436,117.53950333595276,-0.0034593565303707354,-0.1372458070401518,-2.419823267588736,-0.103352092206,0.00329024624079,-0.0429363250732,0.0732205808163,-0.0747948884964,0.13209657371
1765456263.5469227,117.73899006843567,0.01714667737409651,-0.13875011022663986,-2.3955141994746016,-0.0428789183497,-0.0535007566214,0.0511236190796,0.116194047034,0.0810869038105,0.122775889933
1765456263.7478113,117.9398787021637,0.024781616921244417,-0.12874767664646575,-2.372601693036105,0.0377282164991,-0.0169950313866,0.0584449768066,-0.034470859915,0.017898529768,0.11720135808
1765456263.9468324,118.13889980316162,0.006944219590111435,-0.12849289535392924,-2.35161624996239,-0.0576410889626,0.0168791972101,0.0774822235107,-0.0915616750717,-0.0258952397853,0.10486023128
1765456264.146408,118.33847546577454,-0.0001516994195881457,-0.1301694800958102,-2.3341320647738013,-0.0598548427224,0.0409028977156,0.0673627853394,0.0385098196566,-0.0135242948309,0.0807352364063
1765456264.3464847,118.53855204582214,0.0161258398745933,-0.1372254671473263,-2.3207214507885983,0.0100751640275,0.0187608636916,0.0705480575562,0.0887431204319,-0.0490590967238,0.0687353312969
1765456264.5458822,118.73794960975647,0.022614340587327135,-0.14753408102907545,-2.3091944906424087,0.0327480509877,-0.072952337563,-0.0906410217285,-0.037491325289,-0.00178962969221,0.0655733048916
1765456264.7477372,118.9398045539856,0.006205557531967032,-0.13437214803303701,-2.298096033115612,-0.0104736769572,0.0216300133616,-0.089038848877,-0.0956580117345,0.113914161921,0.0549636818469
1765456264.945473,119.13754034042358,-0.0028325891099760174,-0.12350124929900964,-2.2904719355469334,0.0315830558538,0.111622408032,0.0414428710938,0.0128753511235,-0.0301271695644,0.0333495438099
1765456265.1464927,119.33856010437012,0.0088641485960038,-0.13642552845727215,-2.2868417806650463,0.0780795589089,0.0467069894075,0.0260877609253,0.0636570081115,-0.0624433085322,0.0197909791023
1765456265.3446624,119.53672981262207,0.012156138195504991,-0.14515904067942917,-2.2851392217801587,0.0240374132991,-0.0702225863934,-0.0529441833496,-0.0523343682289,0.0238932687789,0.0109784295782
1765456265.5481737,119.74024105072021,-0.004207220538289473,-0.13187958737791255,-2.285247346120416,0.0350697785616,0.0651473402977,0.0821533203125,-0.0868186205626,0.0511489771307,-0.00290125608444
1765456265.7477098,119.939777135849,-0.007925547638427097,-0.1256497794755663,-2.2887584577015763,0.0134454630315,0.089508280158,0.132459640503,0.0302530881017,0.0572256781161,-0.0156849622726
1765456265.9467306,120.13879799842834,0.004428599184868537,-0.1288092123124034,-2.2956110375024594,0.141013532877,0.0941370278597,0.200005531311,0.0342942811549,-0.048154592514,-0.0345364250243
1765456266.1467383,120.33880567550659,0.0024500166567104275,-0.14292331694430765,-2.304769914807351,0.063324123621,0.00644663814455,0.0278768539429,-0.0754594653845,-0.0341698490083,-0.041010979563
1765456266.3457,120.53776741027832,-0.010851237115042002,-0.13391661432857896,-2.3155463961583567,0.024922920391,0.0359948016703,-0.0385055541992,-0.0612705983222,0.101368889213,-0.0491812862456
1765456266.5459533,120.73802065849304,-0.009861578365941436,-0.11719900341501323,-2.3291929662161404,0.096244379878,0.0993719100952,0.0337924957275,0.0347368456423,0.0374086238444,-0.0706642866135
1765456266.7477808,120.93984818458557,0.0019104368131711057,-0.1316363825137395,-2.3458947146764633,0.0732911378145,-0.00758212991059,-0.0741119384766,0.0290833432227,-0.141373276711,-0.0798344686627
1765456266.9478528,121.13992023468018,0.0020048071227399596,-0.14584249103892757,-2.3638545404357396,-0.0185204781592,-0.0683097615838,-0.185001373291,-0.0540629066527,0.0313796028495,-0.0835433453321
1765456267.1467836,121.33885097503662,-0.008313022492722765,-0.12328938651191544,-2.38224819513659,0.0657173022628,0.0691854134202,0.0100297927856,-0.0650823190808,0.133060663939,-0.0859364941716
1765456267.3477771,121.53984451293945,-0.01284909375144091,-0.11568299064210721,-2.4026727764847347,0.0944113209844,0.0984528362751,0.132363319397,-0.0153765082359,-0.0706150978804,-0.105394430459
1765456267.5441544,121.73622179031372,-0.0073876613988934975,-0.13577051566478876,-2.4255538576223685,-0.000313553027809,0.00999087933451,0.00393962860107,0.01237318106,-0.100304208696,-0.113452985883
