timestamp_abs,timestamp_rel,roll,pitch,yaw,acc_x,acc_y,acc_z,gyr_x,gyr_y,gyr_z
1766069845.3832014,10.104042291641235,0.01677706806549634,-0.06714809900384965,-0.216817448499491,-0.0188385302992,0.0349507959414,0.0172102380037,0.0109415690661,0.00963773198587,-0.00258432970223
1766069845.5831857,10.30402660369873,0.01735548168712633,-0.0663501909741267,-0.21667633425123042,-0.00151069172189,0.022432537176,0.007894747281,-0.00578722047954,0.00395591922266,0.00160885775621
1766069845.7834258,10.504266738891602,0.01735910400232776,-0.06634198094782869,-0.21642443250162255,0.00849471624478,0.0160797092918,0.0040409493684,-0.00216772656291,-0.00543106727141,0.000552364961906
1766069845.98242,10.703260898590088,0.017247537318302156,-0.06636448882022905,-0.2162092823750578,-0.00361881021873,0.027584511679,-0.0070149969817,-0.00455638456493,-0.0041391365959,-3.62304395894e-05
1766069846.1829982,10.903839111328125,0.017060217225128706,-0.06650730499487376,-0.21575917486132076,-0.00807381503747,0.0182998020987,-0.00262237308033,-1.30195855983e-05,-0.00269968489024,-0.0017439035124
1766069846.3823984,11.103239297866821,0.016726406627244086,-0.0671206268327298,-0.2151504594599127,-0.0240665803523,0.0127541426423,0.00583004238598,-0.000461546400178,-0.00915337826895,0.00059706937681
1766069846.583899,11.304739952087402,0.015916260540074372,-0.06821681722692004,-0.21481771412646414,-0.0152374784322,0.0389783143851,-0.0007894110442,0.00144431397916,0.00124986835713,-0.00324743137536
1766069846.7821221,11.502963066101074,0.015956586624643058,-0.06808949315967903,-0.21442181858566703,-0.0334059520485,0.0475432000908,-5.2220797618e-05,0.0154968545087,0.0201579517887,-0.000958612317489
1766069846.9842386,11.705079555511475,0.016100015534397938,-0.06812513790639407,-0.21406022788866153,0.0104197357921,0.0246468702185,-0.00934196231373,0.00825116438341,0.00139142942485,-0.000519028527931
1766069847.1841943,11.905035257339478,0.016089782129849847,-0.06822243483234443,-0.21373903401644115,-0.00559083920435,0.0492488000396,-0.0187327933074,0.00221768377946,0.0022601670788,-0.00174539455985
1766069847.382193,12.103034019470215,0.016059100641556995,-0.06822155682142254,-0.21340372539044336,-0.0374720374914,0.022037653494,-0.0160615515471,-0.000604595684994,0.00400807351967,0.000690947157993
1766069847.5830708,12.303911685943604,0.016048707031224577,-0.06824761834940249,-0.21317446051010117,0.00894116807266,0.0181853162445,-0.00834823367604,0.00145325327889,-0.000491332568478,-0.00365870295864
1766069847.7848558,12.505696773529053,0.016111869722140692,-0.06821437877004694,-0.21291338749948935,-0.0428900289209,0.043899866179,0.0168125558137,0.0029895639293,-0.00127662376339,0.00081015505056
1766069847.9831302,12.703971147537231,0.016156988456374217,-0.06821139935857741,-0.21258501973708258,-0.0549813899072,0.0370789611566,0.0316393304109,0.00174978731797,0.00221099324686,-9.58350843648e-05
1766069848.1828105,12.903651475906372,0.016190012694188502,-0.06823910871748184,-0.21222106548460962,-0.00376859017179,0.0135554116073,0.000949137234609,0.0017721385941,0.00542070383367,0.00339550744902
1766069848.3830616,13.103902578353882,0.016161745735930832,-0.06831527512465811,-0.21195186983267306,-0.0214941966207,0.00483220851453,0.00834106686107,0.000350567816209,-0.000340830607589,0.00195903550993
1766069848.5885868,13.309427738189697,0.015944515014764432,-0.06841330858109745,-0.2115891972264747,-0.0229203541623,0.0384588021639,-0.00738597629078,-0.0152986326009,-0.00237036899502,0.00341487802724
1766069848.7870257,13.507866621017456,0.016362444052392726,-0.0680593619886583,-0.21136168004559786,-0.00663541060404,0.0299075528833,-0.0197789740325,0.0207137515083,0.0152822918461,-0.000727644318984
1766069848.9836512,13.704492092132568,0.016404056984722516,-0.06801518680407663,-0.21111871653039857,-0.0313584393682,0.0344270722795,-0.0158326697112,0.000556204772007,0.00475462169548,-0.0010286477751
1766069849.181996,13.902837038040161,0.016307257320881938,-0.06796679633483205,-0.2108495375232188,-0.0272632743092,0.0233257570158,0.0030996728181,-0.0140290480792,-0.00253875211651,0.00389618367116
1766069849.38277,14.10361099243164,0.015915992143370764,-0.06825565776694317,-0.21046750706484693,-0.0223826317908,0.0381859842542,-0.00401187655934,-0.000165012361098,2.12674930061e-05,0.00160289682607
1766069849.5829535,14.303794384002686,0.01585334335932125,-0.06821454937880428,-0.21018291501285835,-0.0207439231546,0.0497530124936,-0.00903487918385,0.00218788145707,-0.000668656153854,-0.00111507451002
1766069849.782322,14.503162860870361,0.015867028470313436,-0.06821392520042378,-0.20988041320253897,-0.00133751228914,0.0261884651932,-0.0072009634734,0.00248590374963,0.00329728789789,0.000586637632652
1766069849.9831686,14.704009532928467,0.015851377197422713,-0.06829615029907998,-0.20965624161778157,0.0123599377601,0.0516404196474,-0.0112922262908,0.00769982133192,0.010226330647,-0.00147419202913
1766069850.1833506,14.904191493988037,0.015110667834190314,-0.06885843099016897,-0.20933667893172886,-0.00451639563308,0.0565240386728,-0.000427014803966,-0.00481566663234,0.00378157586952,-0.00122534356852
1766069850.385064,15.105904817581177,0.014475802479531747,-0.06935409520330316,-0.20902628750668012,-0.0443064327212,0.0673570338491,0.00402282955639,0.0019762840368,-0.00916381001311,-0.000796188729153
1766069850.5845995,15.305440425872803,0.014726587990135846,-0.06934226494239833,-0.20868217380432827,-0.0323705541761,0.0433405920717,0.00524257900707,0.00103304193021,0.00337626428505,0.00214082967649
1766069850.7843816,15.50522255897522,0.015056973929306192,-0.06920927749665169,-0.2084074687378866,-0.0565826835902,0.0564414489869,0.00904297115795,0.00414887473584,-0.00688691165137,0.00155670322637
1766069850.9832215,15.704062461853027,0.014847325935165412,-0.0689723185774727,-0.208053984037449,-0.0207505355449,0.0449745137099,0.0169594216584,-0.0106792726308,-0.00968385960745,0.00225705780248
1766069851.1821742,15.90301513671875,0.014850063997661148,-0.06920772121188969,-0.20780616025326032,-0.019239604366,0.0181090090278,-0.00640083072193,0.0176157991648,0.00349994392296,-0.00690641127367
1766069851.3849843,16.105825185775757,0.014537228914252806,-0.06913304451044817,-0.20745993266679322,-0.000229261708415,0.0471404291544,-0.00484061954029,-0.00357886839061,-0.0125746839477,-0.00354992471476
1766069851.5830948,16.303935766220093,0.014566595466757433,-0.06934846095312197,-0.2072537041298802,-0.0208799195336,0.0405185766372,0.00376915218822,-0.000728275322903,-0.00225115970547,-0.00025676809092
1766069851.7830775,16.503918409347534,0.014369717121984123,-0.06946364267026789,-0.20691871175426185,-0.00449402060822,0.047106963009,-0.00683093783863,-0.000926460766781,0.0125382430123,0.00275401245962
1766069851.9834507,16.704291582107544,0.014754949615447889,-0.06905734415646268,-0.20654788321722514,-0.0283682419778,0.0540678914491,0.0213901925325,0.00363925362603,0.0087004498781,0.000136623961582
1766069852.1842637,16.905104637145996,0.016110868956137312,-0.0674004876125943,-0.20643012156277318,-0.0156033252226,0.0344651577848,0.0144092965364,-0.00689735885112,-0.000774454631161,0.00485135182898
1766069852.3866756,17.107516527175903,0.015411253416881593,-0.06803560992068616,-0.20601433553758458,-0.0374001393886,0.0274243330437,0.00156234982006,0.00527838228868,0.00346120090385,-0.00440972148281
1766069852.5827038,17.303544759750366,0.015503374863760416,-0.06798156439531437,-0.20573953060260203,-0.018223508154,0.0482092298421,0.00905060055248,0.000293943403672,-0.00241954282696,-0.000143519265846
1766069852.7827945,17.50363540649414,0.015516069611722227,-0.0679555902523077,-0.20535258994097033,-0.0200385161536,0.0317553499568,0.0115873742341,0.00121185586454,0.00524636024771,-4.81518342058e-05
1766069852.982063,17.702903985977173,0.015480269860709377,-0.06790776570479476,-0.20490549512821646,0.00111840862318,0.0534333851043,0.0092317986726,0.00145176316277,0.00101964540941,0.00337911524038
1766069853.1837213,17.90456223487854,0.015473926127769023,-0.06789842383503346,-0.20451910374355958,-0.0224110371293,0.0528846926841,0.0070345330476,0.00253209874631,0.000545788425237,-0.000317862851814
1766069853.385636,18.10647702217102,0.01555387193503914,-0.067924722550798,-0.20429608064702226,-0.0243470704974,0.0299664012942,0.0143091607331,0.000128540514421,0.00470246809696,-0.000469853764669
1766069853.5867484,18.307589292526245,0.015565252787510026,-0.06788991420311281,-0.2039714579548984,-0.0103037039609,0.0295853301737,0.00360416653148,0.00361988351346,0.00631328338918,0.00162673868398
1766069853.787477,18.508317947387695,0.015621498541673039,-0.06788542011877331,-0.2037529455874574,-0.00829356059895,0.0476990792755,0.00177120449535,0.00173786638902,0.00425543256265,-0.000349155290321
1766069853.9847565,18.705597400665283,0.0156688393509411,-0.06787503795171121,-0.20346529090021523,-0.0246902386518,0.0395492505136,0.01478790524,0.000802072534721,0.00298287362953,0.00138832150187
1766069854.183297,18.90413784980774,0.01587493577009691,-0.06781455090545278,-0.20320566598344614,-0.0173620580556,0.0124512299749,-0.00227618930348,0.0101875706589,-0.00138689235623,-0.00597136340876
1766069854.3841288,19.10496973991394,0.016157075841347488,-0.06740942584700288,-0.20296956010805378,-0.010575394039,0.0129327088449,0.00239204647533,0.00988060650547,0.00918771691782,-0.00310587034401
1766069854.583626,19.30446696281433,0.016055390941382298,-0.06743907848126524,-0.20264839952534705,-0.00519705273674,0.0418598990742,0.00386356594555,-0.0103603877813,-0.00456530980604,0.000124701635643
1766069854.784914,19.505754947662354,0.015701236289482993,-0.06783459535384483,-0.20240159107132397,-0.0209690005378,0.0119340320903,0.0151960778474,-0.00647267296313,-0.0100861909597,0.0029350606368
1766069854.9857833,19.706624269485474,0.01573237966977741,-0.06789968883655124,-0.2021361238449135,-0.00360800687686,0.0336789268854,0.000217669033925,-0.00303199484347,-0.000772964282211,0.000719258432939
1766069855.1836033,19.904444217681885,0.01544765133884241,-0.068123764713957,-0.20176862425923936,-0.0212866048189,0.0553335811797,-4.64987517195e-05,-0.00246724083423,-0.00279207208964,0.000223050230845
1766069855.3833792,20.104220151901245,0.015526087674729048,-0.06811922901772545,-0.201315254373167,-0.0106678743707,0.0150437088537,0.0149328637361,-0.000570323945571,0.00803287785662,-0.00158595073809
1766069855.5834515,20.30429244041443,0.01531863262729838,-0.06831990236705213,-0.20088337286814023,-0.0256258695246,0.0161127130355,0.0163090157746,0.0104870838825,0.00407512874504,-0.00229524694224
1766069855.7835813,20.504422187805176,0.01560234978925699,-0.06789265642679776,-0.2007535936992693,-0.00646439649627,0.0269196903187,0.0124771523713,-0.00315865564494,-0.00327188948008,0.00258786358099
1766069855.9825444,20.70338535308838,0.0157128980222251,-0.06790240193191177,-0.20049869589343508,-0.0104976751702,0.0322316981706,0.00601600887768,-0.00166257719843,-0.00198442868727,0.000364610796525
1766069856.1817367,20.9025776386261,0.01564162101236265,-0.06794064742187883,-0.20015819410331165,-0.0170766309695,0.0236398775683,-0.0046956610442,0.00344106957914,-0.00117380575116,-0.00109272276823
1766069856.3826065,21.103447437286377,0.015657385677659157,-0.06798329128883372,-0.19987373520937757,-0.0389072279306,0.0342037383321,0.0120174813508,0.00342169760392,0.00129308171732,0.000355671031131
1766069856.5840285,21.304869413375854,0.01565445620046007,-0.06800395991560626,-0.19958962585533654,-0.0290473623993,0.0181285784434,-0.00143886325367,-0.00120213224887,0.000808048920457,-0.000490715856002
1766069856.7857516,21.506592512130737,0.015595656516423563,-0.06796388350238977,-0.1992840946992772,-0.00899105135814,0.0264216301817,0.0187771249055,0.000165794348728,0.00281151039222,-0.000949671155111
1766069856.9819324,21.702773332595825,0.015567298012003423,-0.0679638002786057,-0.1989435096853697,-0.0244496780308,0.0643509890738,-0.0019986700774,0.000468287920963,0.0036772672755,-0.00107335219
1766069857.1846147,21.905455589294434,0.015583624437842369,-0.06792577533166641,-0.1986211340354156,-0.0339302177401,0.0285977296385,0.00143169643871,0.0022802695878,0.00227655835611,0.000443586950853
1766069857.3837056,22.104546546936035,0.015563180515286807,-0.06792496389977178,-0.19837837025729807,-0.0140909737767,0.0443962965015,0.00800728085033,0.000898931479465,0.00283386178476,0.00128252232607
1766069857.583752,22.304592847824097,0.015544933700630563,-0.06785841400084422,-0.1981359726638304,-0.0281227695616,0.0441647715721,-0.00258041141041,0.00220278261827,0.00397976108057,-0.000881126279281
1766069857.7824233,22.50326418876648,0.01556155661120024,-0.06782574866559872,-0.19776244767619,-0.0122679796861,0.0314520209882,0.00307296993725,-0.000163523176301,0.000833380807175,0.00265045125197
1766069857.9842918,22.705132722854614,0.015728790644089607,-0.06769112587249522,-0.19740952889748406,-0.00482326642141,0.0473244212422,0.0189058709382,0.00797549287222,-0.00404973056006,-0.00353949320343
1766069858.1836436,22.904484510421753,0.015716118782668414,-0.0674905274245742,-0.19709222989835792,-0.03504286882,0.0263769066747,0.0092203545808,0.0123869821675,0.00891055531961,-0.00401335059506
1766069858.3858752,23.10671615600586,0.015343846312978165,-0.06793839621851987,-0.19678816348089812,0.00296079750642,0.0356579314772,0.0153210091829,-0.00849625065326,-0.0119845988958,0.0027964798377
1766069858.582834,23.303674936294556,0.015761362352578037,-0.06732035559210733,-0.1965177194722006,-0.0108259663777,0.0339938703779,0.00930904629223,-0.00363847210406,0.00344629974266,0.000899562483384
1766069858.7829306,23.503771543502808,0.015634161040418527,-0.06759490253335929,-0.19632044581445296,-0.0167145327525,0.0310660250339,0.0103418755769,-0.000209714913357,0.00341053695579,0.00241650022726
1766069858.9834187,23.704259634017944,0.015483738211910285,-0.06761618701613391,-0.19616949451491592,-0.0210575227486,0.0583227094117,0.0113279748201,-0.000305080482353,0.000940669255082,0.00100685084398
1766069859.1842263,23.905067205429077,0.015392531186358875,-0.06753799410981566,-0.1958328875978867,-0.0240786167653,0.0490462113026,0.010318033719,0.00384936046452,0.0026639888964,-0.000994374638693
1766069859.381591,24.102432012557983,0.015455647063896452,-0.06752156573484124,-0.19557244708803376,-0.0170539066987,0.035378922135,0.00606941463939,0.000784194400918,0.00143464271955,0.000971088057115
1766069859.5819817,24.302822589874268,0.015426663340798523,-0.06753156507249664,-0.19524339689059766,-0.00199248817281,0.0160734112229,0.0049011636018,0.00261703629644,0.00362958402534,0.00106645502309
1766069859.7822526,24.503093481063843,0.015483119235016302,-0.0675576474064226,-0.19502832998781694,0.0081194630964,0.0230775479081,0.00631164791576,0.00171998499558,-0.00273097709591,0.000234970228477
1766069859.985266,24.706106901168823,0.015270888182677604,-0.06769729691608363,-0.19470309143969103,0.00269748933151,0.0600544068817,0.0100595879792,-0.000826622986782,-0.00608075836512,0.00157011427145
1766069860.183656,24.904496908187866,0.014880462525088182,-0.06788449633477019,-0.1943460946955659,-0.0226519004302,0.0505106210563,0.00766491177074,-0.0115405578852,-0.00321377495142,0.00573051940809
1766069860.3869488,25.107789754867554,0.013200589403439338,-0.06945388884277548,-0.19381406168879534,-0.0344332474144,0.0797294344607,0.00393985989086,-0.00716110661029,-0.0134508750199,0.00127656232725
1766069860.5835745,25.304415464401245,0.012447560839570717,-0.07010674197806238,-0.1934659366000515,-0.0372152476431,0.0861149545613,-0.00326610324391,0.00557491562926,0.00444169731041,-0.00407891593714
1766069860.7840533,25.504894256591797,0.012400240836248673,-0.07010853128941978,-0.1930686928339526,-0.0396816450031,0.0734327699843,0.0170748162507,-0.000787879967678,0.00451918334861,0.000719257967277
1766069860.98349,25.704330921173096,0.012229946248700316,-0.07029007565197912,-0.1925845634372898,-0.0462880524667,0.0582609329227,-0.0011613440276,0.00561663888061,0.0157978720234,-0.00298964105387
1766069861.1822586,25.903099536895752,0.012134806899351838,-0.07044602870093848,-0.19192358349948896,-0.0193064500438,0.0739707056287,0.00678943874828,0.004937146163,-0.00204999402935,0.00106645595442
1766069861.3833697,26.10421061515808,0.010690442522444664,-0.07179826538918303,-0.1911239028031654,-0.0533127392502,0.0856484662596,0.00138019802562,-0.0095601935625,-0.00386048488158,0.00153286183412
1766069861.5848718,26.305712699890137,0.009627116160284381,-0.07274273882502282,-0.19075585394051645,-0.0719929764839,0.109015290052,-0.000210530734141,-0.0060241480112,-0.0034134495801,1.02199773394e-06
1766069861.7866693,26.5075101852417,0.009500462044505097,-0.07282999064023654,-0.19046921458343988,-0.0394596661301,0.120851841182,3.4563565175e-05,0.00135639573113,-0.0045831921308,-0.000209084375099
1766069861.9836025,26.70444345474243,0.009488922026547187,-0.07275625436755497,-0.1902698603310906,-0.0522916818829,0.097641814858,-0.0157258581878,0.00396708010362,-0.00291277196097,-0.00175731455748
1766069862.1830635,26.9039044380188,0.009469544408724958,-0.0726983888704946,-0.19007428443853794,-0.0516229028674,0.107084494442,0.00243210079662,-0.00138243909328,-0.000127744351763,0.00130785476576
1766069862.383356,27.104197025299072,0.009536669592059866,-0.07276991139052003,-0.1898438544252188,-0.0487261618348,0.12897319755,0.0184147286653,0.00372568129228,-0.000610541858028,-0.0018124488539
1766069862.5832853,27.304126262664795,0.00948998833128052,-0.0727082758560415,-0.18951983094434025,-0.0337110291095,0.106129709989,-0.00878406283863,0.00180194184781,0.000439990180761,-0.00262903318581
1766069862.7828639,27.50370478630066,0.009540144185044579,-0.07260380503990474,-0.18923623757776042,-0.0456809940608,0.100956257791,-0.00089812991627,0.00140706107618,0.00280107957938,-0.0018079789712
1766069862.9844818,27.705322742462158,0.00958719163047381,-0.07257691543527335,-0.1889678408741509,-0.0550423915358,0.104779180497,0.00926803829662,0.00388512418271,0.000249255375687,-0.000103285664962
1766069863.1831405,27.90398144721985,0.009548449918694264,-0.07256047041554212,-0.18866989972719828,-0.0713702197047,0.105719540626,0.00766872646801,0.00268409059049,0.00208582355104,-0.000957123598353
1766069863.3836458,28.10448670387268,0.009598892894513347,-0.07246778408722895,-0.18837300719992486,-0.0532004440995,0.0987730439607,0.0208847451448,-0.000300612927962,0.00589754052622,-0.00133561216135
1766069863.5867758,28.307616710662842,0.009557796989942061,-0.07243798165015528,-0.1772647459113658,-0.0497476364346,0.107825000197,0.0089008736848,0.00292995975019,0.00625218862829,0.000620911234721
1766069863.7859037,28.506744623184204,0.009584150841463536,-0.07243276351889441,-0.17705746875477357,-0.0442254747124,0.0747138675156,0.0293505120515,-0.00106504156588,0.00440742440683,-0.000842383260177
1766069863.983046,28.70388698577881,0.009787621550232094,-0.07244080293643508,-0.1768328477615822,-0.0606558899255,0.105177466184,0.0188429284333,0.013948624792,0.00556822486383,-0.00836821588528
1766069864.182998,28.903838872909546,0.010103552558407655,-0.0722590671591724,-0.17662415580066088,-0.0356836634548,0.0878414850536,8.98766755266e-05,0.0126179492347,0.0101905632035,-0.00424133859415
1766069864.3850148,29.105855703353882,0.0097611158153047,-0.07237148584668736,-0.17640189836293693,-0.0381090844841,0.111888792724,-0.00262332675465,-0.00136008548884,0.00839646525842,-0.000182261819289
1766069864.5826724,29.303513288497925,0.009525017221993469,-0.07268559737488381,-0.17612844165325625,-0.0719133446784,0.111285258442,-0.000653035616954,-0.00464579246341,0.00557865567667,0.00211698781858
1766069864.783163,29.50400400161743,0.009547175554500768,-0.0726013083263828,-0.17593200023334926,-0.0673232543142,0.0845939781371,0.00180267574779,0.00817814869356,0.00462647101072,-0.000849833840773
1766069864.9827669,29.70360779762268,0.009565472303427454,-0.0724888646717326,-0.17569654350347264,-0.0404469835432,0.0972107466164,0.0103275704621,0.00341275690721,-0.000765513701614,-0.00342028461237
1766069865.182762,29.903602838516235,0.009657080883736976,-0.07235519895214584,-0.17550609419601834,-0.0470221693488,0.0802406485978,0.0173361230134,-0.014917159149,-0.00676918968397,0.00605461966406
1766069865.3836808,30.10452175140381,0.009336059700868541,-0.0726319180341619,-0.1751617474670711,-0.0599891337426,0.0962470140162,-0.00160670993336,0.000667962549638,0.00202472879014,0.00116778291921
1766069865.585697,30.306537866592407,0.010976501393627401,-0.07107227935364901,-0.13111429474916467,-0.0474128554435,0.0758047703508,0.00945781948559,0.00936949661832,0.00959302850229,0.00102324212129
1766069865.782375,30.5032160282135,0.011335796154490017,-0.0707184867252104,-0.130950002677042,-0.0555055159004,0.0865273814503,0.0034658837556,0.000264141081285,0.000542808251206,-0.00117914996882
1766069865.9828258,30.70366668701172,0.011270012954673158,-0.07071349329816651,-0.13066558539499995,-0.0520962233515,0.0705841522518,0.00314068081371,0.00416675612928,0.00187422706208,-0.00373469911356
1766069866.1829655,30.903806447982788,0.011020865912317839,-0.07074517659276004,-0.1303254997237968,-0.04292588484,0.105665367455,0.00068878414623,0.00729898009581,0.0170272196845,0.00205738224248
1766069866.3830407,31.10388159751892,0.011247938886247224,-0.07058582801341083,-0.13007884107258505,-0.0452865305217,0.0602521415654,0.0172693658113,-0.00434478807597,-0.0109042619153,-0.00163214573477
1766069866.5831578,31.303998708724976,0.011165424584941401,-0.07055508514757723,-0.1299587657969361,-0.0430358256073,0.0855183344189,0.00377487423412,-0.00156721162944,0.00958557792169,-0.000481775624947
1766069866.7837112,31.504552125930786,0.01124872847189854,-0.07021236128241924,-0.12986468130905063,-0.0256816315325,0.0680765550438,-0.0105073523284,-0.00489314987658,0.0026893206376,-0.00108080230494
1766069866.9888244,31.709665298461914,0.011278196973538648,-0.07010675030044079,-0.1296186052243273,-0.0433594639273,0.0846508782211,-0.00304294345387,-0.000871329264332,-0.00143308642159,0.00237328685979
1766069867.1837041,31.904545068740845,0.01137737579730618,-0.07004861848727141,-0.12941578054018257,-0.0322414505155,0.0790071602765,0.00294899227611,-0.00125279619693,0.00286068422416,-0.000550320966438
1766069867.3841724,32.105013370513916,0.011419838652530732,-0.07005580902221462,-0.12916112408332214,-0.0557482632668,0.0723910037282,-0.00824046847828,0.000512990473222,-0.00112463168639,-0.00233697019358
1766069867.5821407,32.30298161506653,0.01137801766074078,-0.07002703023768495,-0.11436619064111754,-0.0305042768689,0.0885059427324,0.00439380886547,0.000122580049943,0.000748444333889,-6.30534610609e-05
1766069867.782468,32.50330901145935,0.011478862000486914,-0.07005767323497768,-0.11408480270481544,-0.0253272875072,0.0759127106372,0.0157988000154,0.00345895097257,-0.000808727069076,-0.0020434168524
1766069867.9831796,32.704020500183105,0.011576782064520464,-0.06997160319749768,-0.1138388181662546,-0.0247367824288,0.0782737661007,0.00199531795971,0.00199267671109,0.00376369401043,0.00252378672521
1766069868.1835847,32.904425621032715,0.011621409778428007,-0.06986393658805282,-0.11352850164261152,-0.0553676093789,0.0779765810672,0.00248550655834,-0.00209024145602,0.00382627888744,-0.000900497788833
1766069868.3876996,33.108540534973145,0.011687432246624054,-0.06983923576894233,-0.1132587317465649,-0.0262480619223,0.0754820447269,-0.00120044467457,0.00109860564248,-1.44951774438e-05,-0.00275420200852
1766069868.5851862,33.30602717399597,0.01170364423975991,-0.06983417576287118,-0.11290127727162742,-0.0564910638006,0.0918239470425,-0.00165725467213,0.00195542334245,0.0062223863059,0.000255832785471
1766069868.7831626,33.50400352478027,0.011801718267793982,-0.06974292504483313,-0.11261499577682231,-0.0408637280436,0.0943676274124,0.010297052884,0.0022594070308,0.000587511734788,-0.00268416701657
1766069868.981859,33.70269989967346,0.011820514359425056,-0.06970016050339135,-0.1123192350930122,-0.0191467515053,0.0608276355866,0.0210688042878,0.00321606204511,0.000684369195236,0.000294576270237
1766069869.184669,33.90550994873047,0.011560106098788445,-0.0697870544563336,-0.1119947954932133,-0.0415114628942,0.101539183766,0.00672458889476,0.0017840590574,0.010038573222,0.00309599410902
1766069869.3816493,34.102490186691284,0.011745148981170416,-0.06950421010381036,-0.11170244698454984,-0.0184670722903,0.0744539577368,0.00353836300365,-0.0178690829068,-0.00829209115195,0.0035653797553
1766069869.583248,34.304088830947876,0.011738466111309997,-0.0694103544813311,-0.10861100797929384,-0.0555988083454,0.0799693543318,0.00988220455639,-0.00134369141756,0.00041763843897,0.000850388185783
1766069869.7824235,34.50326442718506,0.01142034839820813,-0.0693629835034413,-0.1082100524324256,-0.0252085196646,0.0792459625605,-4.07767058211e-05,0.0101786299622,0.0137921775894,-0.00069188199778
1766069869.9839263,34.70476722717285,0.010914652598202214,-0.06977897758809008,-0.10785082529088752,-0.0305438115121,0.104139853627,-0.0108039450408,0.00207016228364,-0.00195462636488,-0.00150995528166
1766069870.1871526,34.90799355506897,0.010913271083386735,-0.06978184880864033,-0.10757717716650347,-0.0328225715877,0.0817540701333,0.0152313637971,0.000767800329637,-0.00119615702729,-0.000630788168208
1766069870.3854005,35.10624146461487,0.011047031470027866,-0.06973626714210794,-0.10729392501743833,-0.0313065647008,0.0746727887395,0.00916408779613,-0.000144147941459,0.00283386190118,-0.00139074645777
1766069870.5846858,35.30552673339844,0.010996099554477402,-0.06983618977844555,-0.10699798124130327,-0.0205484385462,0.0776579532626,0.00100826504223,0.00110754680486,0.00376518459221,0.000167915468766
1766069870.782662,35.50350284576416,0.010480516768924565,-0.07051097654202279,-0.106530629759508,-0.0220543173002,0.0683662708703,0.0136482644319,-0.000933912278701,0.00356997914774,0.00162375984873
1766069870.983626,35.704466819763184,0.009841814797820606,-0.07111896789650947,-0.1059989712597657,-0.0449203605624,0.102463703961,0.00339149715893,-0.00224223609417,-0.00999678585517,0.00302446946661
1766069871.181696,35.90253686904907,0.009560710862681636,-0.07148010086270262,-0.10573127363594231,-0.0671484674187,0.0798223804537,-0.00139117953785,0.00552872272805,0.0031959602346,0.00200820841055
1766069871.3827615,36.10360240936279,0.009665918209307376,-0.07144781003448542,-0.10552261496453459,-0.0697432028921,0.102960948259,0.0122110772371,-0.00199934437274,0.00100325411754,0.00371886264692
1766069871.5828576,36.30369853973389,0.009732625193127356,-0.07141006804841195,-0.10316497670813629,-0.0622874776693,0.0977856334153,0.0110924172639,0.00498035953046,-2.34359905755e-05,-0.00187652431269
1766069871.7825003,36.50334119796753,0.009824449114978148,-0.07148171540411348,-0.10288843239606678,-0.0393068584473,0.0800711478892,0.00218128445141,0.00334421156571,0.00125135847325,-0.000298491342262
1766069871.982148,36.70298886299133,0.009811035521581475,-0.07147197822137788,-0.10256525779778566,-0.0564986298652,0.0848161022964,0.0248930382966,-0.000422802449752,0.00467415472654,-0.00193463837569
1766069872.1830723,36.903913259506226,0.009799213583055045,-0.0714264131996023,-0.10223423519666723,-0.0436793955834,0.0928594212833,0.00778698208324,-0.00225713446139,0.00393654794594,0.0021184779347
1766069872.3850744,37.10591530799866,0.009873796657739475,-0.07142549773797759,-0.10200079248236497,-0.0358906741114,0.105313916117,-0.0133826803923,0.000317785261583,0.00116493172923,-0.000848343724654
1766069872.5889552,37.30979609489441,0.009981202152561831,-0.07132864189808277,-0.101787706305645,-0.0627438257308,0.103801478058,0.00908779385082,0.000723097777378,0.00270869203073,0.000106820707872
1766069872.7832787,37.504119634628296,0.010070844570972818,-0.07135317626962513,-0.10154078133832421,-0.0325255970331,0.0892477299872,0.0073139596223,0.00217000006364,0.00184144444925,-0.00117765938704
1766069872.983195,37.70403599739075,0.010026023361767325,-0.07130449867832553,-0.10120895978887876,-0.0450396369071,0.0892016257945,0.00857185604564,-0.000567343713332,0.00261928506357,-0.00248598133986
1766069873.1819127,37.902753591537476,0.010047119550730494,-0.07119317022238181,-0.10093406330773373,-0.0327293219836,0.0773078802827,0.0144245553254,-0.00116786144077,0.0017758793982,0.00179959401648
1766069873.383535,38.1043758392334,0.009904716374114214,-0.0714417846325191,-0.10068821192722738,-0.0251656099083,0.0933932553831,0.0127937722444,0.00210294530393,-0.00975687436598,-0.00507431338848
1766069873.582821,38.303661823272705,0.0099281376275447,-0.07155387874727623,-0.0967725911436191,-0.0784353296132,0.0982076641026,0.00719284298412,-0.000530090810347,0.0140052623318,0.00327778827558
1766069873.7823312,38.503172159194946,0.010462786982026823,-0.07097112916649645,-0.09656349138615584,-0.0567310879798,0.0566073473397,0.0122740197419,0.0167977263466,0.0117462462948,-0.00346200786372
1766069873.9844146,38.70525550842285,0.010617231599900004,-0.07044173435368073,-0.09624366238399414,-0.0505210290523,0.0768356364075,0.0152714181184,0.00547209784986,-0.00623126009318,-0.00241445623179
1766069874.1836298,38.904470682144165,0.010482593202336988,-0.07064167949489683,-0.09590028105094205,-0.0671462098928,0.114253644258,0.00323986294262,0.00659713528716,0.00221695382775,-1.83495118181e-05
1766069874.384469,39.10530996322632,0.010394760901229413,-0.07073370835531588,-0.09558689356966697,-0.0394062529178,0.122225787849,-0.00565028903492,0.003098343803,0.000128556086432,-0.00405656419535
1766069874.583558,39.30439901351929,0.010473446908468246,-0.07069935357725386,-0.09531258797738881,-0.0435861701937,0.0689507912699,0.0176041054963,0.000524911402177,0.00300820537073,-0.000387898309425
1766069874.7834094,39.504250288009644,0.010547886422125164,-0.07068489760596178,-0.09501965690223692,-0.0190750862332,0.0722058269981,0.00223564388744,0.00147560641767,-0.00160593896012,0.000386961141332
1766069874.983251,39.704092025756836,0.010616335903924006,-0.07059734618512542,-0.0947525917791724,-0.0576944964798,0.090189051241,-0.00482536075123,-0.00119617178439,0.00236149474208,-0.0005443600363
1766069875.1825886,39.90342950820923,0.010703185124082313,-0.07061400758669523,-0.09443815567821812,-0.0328138860734,0.0974783491197,0.00996135952465,0.00142345235349,-0.00543404796931,0.00347597278814
1766069875.38327,40.10411095619202,0.010824069751031291,-0.07053924766146966,-0.09408675989476056,-0.0362155194254,0.0804662335518,-0.00206924197682,0.00737795625013,0.0224482602642,-0.00272589050074
1766069875.5853708,40.306211709976196,0.012343950349301724,-0.06915780774739672,-0.08995092065613794,-0.0244737992854,0.0685752708319,4.41003083391e-05,0.00669399306775,0.0105824665369,-0.000268689019875
1766069875.7827237,40.50356459617615,0.01239795634337609,-0.06907867025112933,-0.08967807148008092,-0.0215275379689,0.0603409152332,0.0146639275788,-0.00655164818614,-0.00870187308478,-0.00158297236849
1766069875.9837356,40.70457649230957,0.012205658427618254,-0.0693514445257807,-0.08934186403721522,-0.00649506029204,0.062445346624,-0.00055862185963,0.00160375500695,0.00330026813013,-0.000441542024062
1766069876.1816745,40.90251541137695,0.01217588719946361,-0.06953619300402654,-0.08905857859863646,-0.0434024649532,0.0737490173283,0.00216984035961,0.000922773337375,-0.00202764228756,-0.000145008916304
1766069876.3830528,41.103893756866455,0.012258483684256197,-0.06951621929585095,-0.08879887878046169,-0.0256325750472,0.0564856272045,0.00491642239086,-0.00178178741931,0.000507045406133,-0.00119256101389
1766069876.5850427,41.30588364601135,0.012309199217968093,-0.0694499481966,-0.08856164106160608,-0.0362033898802,0.0617454726103,0.00111030819408,-0.000463034653652,0.00113736458648,0.00140620196398
1766069876.783317,41.50415802001953,0.012304134010410438,-0.06943868385742681,-0.08833121937066538,-0.0348662192793,0.0708110671345,-0.00643611667164,0.00252613781617,0.00140037007791,-0.000747015828536
1766069876.9834564,41.70429730415344,0.012400969044359242,-0.06939124213932056,-0.08804209162244524,-0.0487161259027,0.0596742223802,-0.00878883121022,-0.000404920124996,-0.000881742991756,0.00121248686846
1766069877.1816225,41.90246343612671,0.012390171798674111,-0.06935100343972515,-0.0877269564417048,-0.0185426724003,0.0847476314607,-0.00799632785328,-0.00152399826198,0.0026088540179,0.00282926332365
1766069877.3828042,42.10364508628845,0.012387410849637756,-0.06927827001364156,-0.08748035604714187,-0.0283581147762,0.0674184676114,0.00473522427074,-0.00234505131244,0.00141378112299,-0.000742545480178
1766069877.5854583,42.30629920959473,0.012453454123779819,-0.06918973655215324,-0.08524611369537671,-0.0221359710069,0.0845870714489,-0.00283599612721,0.00488797209823,0.00155683227045,-0.00283615886074
1766069877.7868237,42.50766468048096,0.01248605287999807,-0.06913118029768513,-0.08497800827501138,-0.0302579420479,0.0594007786218,0.0135595727204,0.00330099866391,0.00065903725031,0.00249398719679
1766069877.9814444,42.702285289764404,0.012530296724201612,-0.06902591053322134,-0.08474848540093859,-0.0329299530806,0.0637698847655,0.0103762078523,-0.00166108894496,0.00555183358652,-0.00226544438702
1766069878.1840096,42.904850482940674,0.012818489245148315,-0.06894333173348287,-0.08450825994823503,-0.0276851634355,0.0704294521216,-0.0126874518157,-0.00957658670245,-0.0132407686471,0.00281287111501
1766069878.3843415,43.1051824092865,0.01254130931142801,-0.06916865180646038,-0.08419323295841388,-0.0373309421213,0.0731862526241,0.00212597134105,-0.0097181477338,-0.0116686952098,0.00106347525652
1766069878.5833087,43.30414962768555,0.012544128517113212,-0.06914337258205064,-0.0839363294593837,-0.0252771581383,0.0619860444072,0.00522255184643,0.00198969554753,0.003288347434,0.000294575338914
1766069878.785069,43.50590991973877,0.013365097857400575,-0.06871508218330626,-0.08392250598885051,-0.0191172285797,0.0430790096376,0.0116970467805,0.014702622617,0.0106346196697,-0.0055138977019
1766069878.9834294,43.704270362854004,0.013629265752482323,-0.06862989015674814,-0.08373050039663421,-0.0255560668977,0.0452442936453,0.0102674889802,-0.000734236718703,0.00116046138315,0.000248381273552
1766069879.181953,43.902793884277344,0.013697011993305815,-0.06850490051665016,-0.08352303182533863,0.00043682019695,0.0413557667139,-0.000982053256114,-0.00037958908229,0.00245537229044,-0.00103013789122
1766069879.3829353,44.10377621650696,0.013750554014784018,-0.0684820181372215,-0.08319377356844236,-0.0219995322497,0.0606835339073,-0.00344062564381,0.00434109878392,2.27573762948e-05,-0.00324445021179
1766069879.5865517,44.307392597198486,0.013855186077002408,-0.06850301549794109,-0.0819095390341573,-0.0355375165911,0.0597620647255,-0.000722653842052,-3.98426070698e-05,-0.00125129155653,0.000896581319823
1766069879.7834613,44.50430226325989,0.013926012638133605,-0.06849537139337472,-0.08169220012207162,-0.0201286914618,0.0519469700608,0.0116436410188,-0.0010292778477,0.00266845877909,0.000358649866386
1766069879.9829507,44.70379161834717,0.013926993638488271,-0.06843222950840462,-0.08138274912578282,-0.0212762904213,0.0518270920816,-0.00334239718922,0.00438729284928,0.00359382100565,-0.00142948901121
1766069880.182802,44.903642892837524,0.013903977060707801,-0.06835812288988397,-0.08104881369222211,-0.0248926858278,0.0736257027689,-0.013571507907,0.00170061302037,-0.000401925484899,-0.00193165814345
1766069880.382145,45.102985858917236,0.014083046555988507,-0.06821684635524447,-0.08074583750633356,-0.00742656913117,0.0333598501834,0.0122606683015,0.00409224985765,0.00846799176348,0.000255833251133
1766069880.584479,45.305320024490356,0.014798066817674652,-0.06759196473378179,-0.08076814148046298,-0.0207152617024,0.0512679781619,-0.0154655050994,0.00375697373078,0.00733699409452,-0.00156508911242
1766069880.7829554,45.503796339035034,0.014979846287423975,-0.0674099709627885,-0.08062956555761638,-0.0272919124784,0.0219810669165,0.0110809731721,-0.00126173782497,-0.00782717399138,0.00140918219621
1766069880.981294,45.70213484764099,0.01466298629375879,-0.06763700544571777,-0.08027217766170615,-0.0365201084735,0.0203316015046,0.00549148800365,0.00446924970151,0.00569935461668,0.00211698781858
1766069881.1841636,45.90500450134277,0.014856002014654186,-0.06747724074744822,-0.08003799425572572,-0.00975929934994,0.046775965378,0.0202877450227,0.0039074759245,0.00157024334463,-0.00172602258463
1766069881.3835428,46.10438370704651,0.014901089539968687,-0.06741926289827936,-0.0797935992914405,-0.0159914771886,0.0304089424986,0.0110714364289,0.000907872176181,0.000767815785233,-0.000875166746126
1766069881.5831752,46.30401611328125,0.014859220694502897,-0.06740977122570675,-0.0790759273119346,-0.0101641452731,0.0401641730073,0.00782417538158,0.000252221083652,0.0042107293119,-0.00125067554255
1766069881.7836802,46.5045211315155,0.014966969487434522,-0.06742252527061471,-0.07883534399695956,-0.00739378657655,0.0115613540489,0.00879215481273,0.00300446555616,0.000968981417694,0.00100387061174
1766069881.9840276,46.70486855506897,0.015058680016879523,-0.06740109514621798,-0.0785565609650987,0.000360172349059,0.0379644896689,0.0169870782136,-9.79562044032e-05,0.00154789160283,-0.00322507893507
1766069882.1835258,46.90436673164368,0.015083402682233326,-0.06729667842554085,-0.07828806439294828,-0.0217979474784,0.029630630635,-0.00503898379811,0.00169316197411,0.0031020830355,0.00221533455114
1766069882.3841932,47.1050341129303,0.015184525821656077,-0.06733047976543885,-0.07803634573566536,-0.0127242346154,0.029205225766,0.00421833279125,0.00258127211259,0.00205751128656,-0.000307431573317
1766069882.5850503,47.305891275405884,0.015222258445053836,-0.06728071610375719,-0.07772173486476452,-0.00772347476796,0.0293267400789,0.0156013894319,0.00109860610814,0.00067542849852,0.00161928950037
1766069882.7825134,47.50335431098938,0.015335880756545846,-0.06727819026191081,-0.07740466056985537,-0.0187276330637,0.0311456773284,-0.00392699954518,0.00598618744538,0.00235404474356,-0.0012700470521
1766069882.9812694,47.702110290527344,0.015309017159346973,-0.06736222131668122,-0.077104472380733,-0.0358244570763,0.0340192088711,-0.00355792758473,0.00107476518155,-0.00135857991713,-0.00172006165449
1766069883.182594,47.90343499183655,0.015233224218901697,-0.06721969226409155,-0.07678102314396447,-0.0157558525772,0.0310510605428,0.00121711971752,-0.00801196291446,-0.00915188815283,0.00153733264814
1766069883.3830392,48.103880167007446,0.015142021354539492,-0.06715221858116087,-0.07642878680028786,-0.0122594115184,0.0429950807098,0.011819117093,0.017203037931,0.0118505525605,-0.00544684253474
1766069883.5839975,48.30483841896057,0.015491612222180132,-0.0668374454238811,-0.0762004457039488,-0.0222222813265,0.0462727997306,0.00335907223217,0.0154923827633,0.0131573853285,-0.00764997921725
1766069883.7827492,48.50359010696411,0.0153089256131845,-0.06652046267513444,-0.0758327214140577,-0.0194214683817,0.0407884329412,0.0114319253205,0.0120263740666,0.00344927974207,-0.00203149592345
1766069883.9833477,48.70418858528137,0.015597898357106814,-0.06614972568426018,-0.07560830848032649,-0.00564678840802,0.0410404264781,0.00137066128246,0.00117013307885,-0.000695478011172,0.00166995112012
1766069884.1823437,48.90318465232849,0.015770864428123657,-0.06598768481549647,-0.07530918555564015,0.0105833468167,0.0211714216362,-0.00103069064625,0.00105390355588,0.000633705276281,-0.00286745129925
1766069884.3823845,49.10322546958923,0.016006391898216742,-0.06594194502377436,-0.07503828381613024,-0.00860583305821,0.0172311005968,0.00918697597973,0.0138830587514,0.00604655213815,-0.00108825241988
1766069884.5853603,49.306201219558716,0.016173826708485165,-0.0659033125432114,-0.07480547360258688,0.00261956091508,0.018651518863,-0.0024459433318,0.00654349133969,4.51094673315e-05,-0.00240402472046
1766069884.785236,49.50607681274414,0.016031846932870315,-0.06604629932661343,-0.07451082811748323,-0.00296402059958,0.020560107319,0.000210039639394,-0.000249948979903,-0.00780184201735,0.000771412497117
1766069884.9876127,49.70845365524292,0.016332884004590147,-0.06624037302986376,-0.07431094123291597,-0.00241691515312,0.0296625805873,-0.000932462191661,0.0187110354439,0.0119906253384,-0.0075233193471
1766069885.1826992,49.90354013442993,0.01632602012299939,-0.0663723659513908,-0.07409478409856401,0.00610466312154,0.0267024765577,0.00732158901684,-0.00317951913326,0.00340308614237,0.000595579726352
1766069885.3825634,50.10340428352356,0.016132619492102693,-0.06654716502625167,-0.07378817935569024,-0.0185361531423,0.033979348265,0.0019485879182,-0.00479927535503,-0.00160146954308,0.00343573965292
1766069885.5844731,50.30531406402588,0.016142044585648052,-0.0665377108043819,-0.07345532583132236,0.000195677499318,0.0249269158899,0.00162624599926,0.00767299918357,0.0153612680004,0.00218404304396
1766069885.7831542,50.503995180130005,0.01511008838859376,-0.06760904225427193,-0.07285821182541297,0.00397673073693,0.0304421385604,0.0158274102449,-0.00886133096515,-0.00764836005705,0.00159246601324
1766069885.9827528,50.703593730926514,0.015079760601383182,-0.06775119263864411,-0.07253551160270102,-0.0221778805228,0.0333056062314,0.00201153042309,0.0142466466189,0.0103261665643,-0.00331895671626
1766069886.1820114,50.902852296829224,0.015339009970826689,-0.06751169955524033,-0.0722935384505321,-0.028171757129,0.0515827596042,0.00930332424633,0.00139961049558,0.00299032421013,0.00254465114485
1766069886.3817077,51.102548599243164,0.015426527061852118,-0.0674495397109222,-0.07200466037366417,-0.00952684123532,0.04732801801,0.00510811092846,-0.00115146643816,0.00103752681012,-0.000958613714472
1766069886.5866334,51.30747437477112,0.015483888014721602,-0.06743320288211024,-0.07171347699797763,-0.0163445648597,0.0410913344327,0.0151169228791,0.00415334415288,0.00169839347641,0.000743101222171
1766069886.7836192,51.50446009635925,0.015486355599919129,-0.06740318406319801,-0.07143327916178767,-0.0261222886713,0.0312134599167,0.0196268487214,0.00180492068307,0.0040468167716,-0.00213282381956
1766069886.9830081,51.70384907722473,0.0155150116293673,-0.06746001758533599,-0.07119656575277165,-0.00237025589213,0.0359388854209,0.00660156490795,-0.00321080784648,0.0024613326385,-0.000104776246742
1766069887.1830397,51.90388059616089,0.015518052418377575,-0.06746113278404245,-0.07081126459968604,-0.00364849612579,0.0265736918751,0.0132963586091,-0.0021096138969,0.00172074504358,0.00308556329618
1766069887.3826227,52.103463649749756,0.015623180702408453,-0.06747116957240068,-0.07050674877379229,-0.0130502207996,0.0268924491334,0.0116016793489,0.0018645257935,0.00212158645432,-0.000589062588559
1766069887.5822,52.303040981292725,0.01567611519026298,-0.06746243107507387,-0.07024717379129362,-0.0128899401845,0.0378951582912,0.00459121944896,-0.00142863083034,0.00120069451064,0.000211128836228
1766069887.7835374,52.50437831878662,0.015680130737844116,-0.0674085561584594,-0.07000034869251372,-0.0173881118046,0.0389209691289,0.00662922146312,0.00136682794095,0.00260885425073,0.00261319648634
1766069887.9831798,52.704020738601685,0.015638936005029254,-0.06738281920323731,-0.06967277987843397,-0.0155600885721,0.046584425852,-0.0134284567595,0.00331738947557,0.00109117098314,0.000717768316819
1766069888.1846836,52.905524492263794,0.015675585678936867,-0.06738804565687659,-0.06944090177127214,-0.0132363223331,0.0256971196591,0.00354789974682,0.0034842829466,0.00375624436115,-0.00232504856613
1766069888.3831668,53.104007720947266,0.015448410755872003,-0.0674541544697486,-0.06911815161428975,-0.00866357505784,0.0401129688922,0.00658344509594,-0.0091265716344,-0.00375766686934,0.00363988649259
1766069888.58396,53.30480098724365,0.015028248199938865,-0.06763723431112394,-0.06868765578526764,-0.0106682934658,0.0342290758941,-0.00706649539479,-0.00181754927485,0.0114735559763,0.00514043063085
1766069888.7832434,53.50408434867859,0.015304916307387171,-0.06721287207498743,-0.06839835742829017,0.00173187080308,0.0284483976516,0.0197727608918,0.000101718424272,0.0120129752175,-0.000937750691817
1766069888.9825969,53.70343780517578,0.015451003176745626,-0.06743067704026387,-0.06809860616403415,-0.0328861120017,0.042935103536,-0.00607372043141,0.0108536524478,0.00755455058229,-0.00327723346491
1766069889.1810253,53.90186619758606,0.015570631124555225,-0.06740171516340926,-0.06784107016424508,-0.0239573809178,0.0373941467929,0.00389408352367,-0.00326594121157,0.00106136865348,0.00149560846548
1766069889.382967,54.10380792617798,0.015745979476390927,-0.0671732658761509,-0.06753693716775803,-0.02110327397,0.0379303324822,0.0134651589631,0.00090936182664,0.00441934556862,0.000936814920708
1766069889.5816653,54.3025062084198,0.01586421966760124,-0.06716805190607923,-0.06733480740221022,-0.0157005785824,0.0311902290064,0.00794243099682,0.00311026380063,0.00369365855281,-0.000617377123133
1766069889.786636,54.507477045059204,0.015906632588555354,-0.06709774861449035,-0.06706364350778052,-0.00705438934729,0.0393630381528,0.0117409157991,-0.000238028050948,0.00313784500745,-0.00196891151209
1766069889.9824188,54.70325970649719,0.01599682116304927,-0.06705916606819783,-0.06677898071557546,0.0200990644424,0.0111525732878,0.00677799465648,0.000438484667253,-0.00165362244311,-0.00338899194104
1766069890.1836455,54.904486417770386,0.015996123123560423,-0.06703221820691758,-0.06654480147078423,0.0118865241437,0.0294813684973,0.00538563015453,-0.000796821595717,0.00042955925151,0.00236881651144
1766069890.382993,55.1038339138031,0.016104838352684503,-0.06698250864069558,-0.06619787896572017,0.00107885069683,0.0245264006167,0.00462364437572,-0.00396033718585,-0.00419278031054,3.67847845992e-05
1766069890.5874531,55.30829405784607,0.016587129544016747,-0.06640459852295917,-0.0659874684336579,-0.00802191708699,0.0133967403177,0.0152304101228,0.0117477218866,0.0112336472811,-0.00387327967984
1766069890.7826185,55.503459453582764,0.018221344017132945,-0.06482509432518999,-0.06587824970064023,0.0172439796059,0.00428137964042,-0.003579862094,0.0126596734174,0.00949617095453,-0.00289427385506
1766069890.9828598,55.70370078086853,0.018474321434149853,-0.06452417376676785,-0.06571732403058299,0.00508775200232,-0.00316893832354,-0.0010802817107,-0.00188162519931,0.00227506800716,0.000196227675035
1766069891.1851032,55.90594410896301,0.018362144095608674,-0.06467743452631271,-0.06541412314047747,0.0379635338812,-0.0157509144541,0.0162355828523,-0.0151347179651,-0.00438947656962,0.00329119838934
1766069891.3827467,56.10358762741089,0.018599847867655058,-0.06445632141561967,-0.06513906437295351,0.0135849529086,-0.00563233868746,0.00293182613842,0.00178853173406,-0.000574778721917,-0.000200144144044
1766069891.5826988,56.303539752960205,0.018581594811215008,-0.0644402217745923,-0.06490212209853133,0.0178744849889,-0.00246461445061,0.00637554409496,0.00729450986386,0.0010628587696,-0.00302093349238
1766069891.7841218,56.504962682724,0.01863849283178563,-0.06446328724634591,-0.06459617482355166,0.0289296080498,0.00192958152326,0.00857662441723,0.00246355340482,0.00256564065044,-0.000118187757478
1766069891.983282,56.70412302017212,0.01859784009386449,-0.06450398367675368,-0.06433253852039063,0.0198499840824,-0.00650696793167,0.00118469479076,0.00341573713944,0.0019144601391,-0.00113444601958
1766069892.1831899,56.90403079986572,0.018632088761601828,-0.06451333386889338,-0.06405221584852457,0.011132290694,-0.0107480395731,-0.00168491122731,0.000366959093522,0.000858712868516,-0.00363039051955
1766069892.3828313,57.10367226600647,0.0186690692500511,-0.06458122367074438,-0.06375382945432721,0.0228505191533,0.0236793452728,0.00788234951488,0.000304375147831,0.00308867175759,0.00383062042455
1766069892.5830297,57.303870677948,0.01865078706528663,-0.06462102544547346,-0.06349601465486152,-0.00287519570903,0.012663597599,0.00158142330639,0.00412950322629,0.00340159602625,-0.000913908833907
1766069892.7833035,57.50414443016052,0.018672826803901636,-0.06461355194966442,-0.06317915674179093,0.0308864359884,0.0131352957192,0.0138199258088,-0.00276973440646,0.00508393759069,-0.000630787236885
1766069892.9825609,57.70340180397034,0.018653666608215276,-0.06463156157653609,-0.06292491640385084,0.00862773332282,-0.00975169950692,0.00208877804271,-0.00351181316524,-0.000844489855941,0.00287098564367
1766069893.1837513,57.90459227561951,0.018431461185356393,-0.06482234794031584,-0.06256389578976618,-0.0281211620988,0.0127567885298,-0.00703502414234,0.0198494832277,0.00586773866949,-0.00205533824702
1766069893.3836923,58.104533195495605,0.018381820278756233,-0.06469513622518333,-0.06223682215720162,0.0058211219637,-0.0094770003256,0.000521891140859,-0.000187363171566,-0.00498552162039,-0.00120001112883
1766069893.5853386,58.30617952346802,0.0182078409581684,-0.06441743094132611,-0.061883682835467906,0.0265179258911,0.0147158954147,0.0177156853913,-0.0174548306256,-0.00580210618513,0.00156713543619
1766069893.7842827,58.50512361526489,0.01789605553473658,-0.0648185779028977,-0.06158272482634294,0.00666003405585,3.76220646723e-05,0.00370525600902,-0.0119145788938,-0.00328380994337,0.0016282288001
1766069893.982474,58.703315019607544,0.017605221698943112,-0.06517508778788604,-0.06126830537014546,0.0124695320754,-7.88156088965e-05,0.00367569210521,-0.000127759458113,0.00201280780298,-0.000817051286147
1766069894.1834664,58.90430736541748,0.017775988581466038,-0.0649369304462165,-0.061022903398073064,0.028653541687,0.0109392482642,-0.00147033450611,0.0048522088457,0.00300075513938,-0.00115530811091
1766069894.3815198,59.10236072540283,0.017895217055112125,-0.06498616147568013,-0.06076195106194813,0.000813749725961,0.0256111411232,0.0103790688752,0.00201204915197,0.00126774973601,0.00281733960073
1766069894.5827913,59.3036322593689,0.01792424551099399,-0.0651235306536578,-0.060493104949904626,0.00838023248597,0.00567511691185,-0.00428653476246,-0.00578126001506,0.00507946677667,0.00420016922216
1766069894.782269,59.5031099319458,0.01748309287642236,-0.06535510915519699,-0.06012135262886478,-0.0156462126271,0.0162280079763,0.00650619747631,0.0118386192028,0.0101771540211,-0.00619711600448
1766069894.982936,59.703776836395264,0.017074289326716792,-0.06553412351472075,-0.05980074548432208,0.0154710431723,0.0158640997339,0.001640551114,0.0124704279717,0.00761713499365,0.000874230043693
1766069895.1855624,59.90640330314636,0.017357176331429355,-0.06544057998143173,-0.059622937869667256,-0.00983038254545,0.0254879562504,0.00327228786937,0.0237669975743,0.0152793116139,-0.00427561138132
1766069895.3839545,60.10479545593262,0.017745541160065867,-0.06521413638736932,-0.059482855596329084,-0.00138920069203,0.0340686267096,0.0148441720246,-0.0088568568915,-0.00449974469679,0.0018279043601
1766069895.582779,60.30361986160278,0.017832056444790613,-0.06515700325960873,-0.05920733493680357,0.00930876109287,0.0053600728366,0.0193369317292,-0.00260731268077,0.00337328381998,0.00293208133589
1766069895.781267,60.50210785865784,0.01792559373629584,-0.06512082588067568,-0.05906569637870339,0.00296938895717,0.0161303005967,0.00484203579418,-0.00338664341121,0.00200535728059,-0.00209706149836
1766069895.982091,60.70293188095093,0.01847820798486569,-0.06441989020414522,-0.059044603310632125,0.00926375586077,0.0232321183517,0.00385307552807,-0.00185331578701,-0.0131349676086,0.00328076850782
1766069896.181514,60.90235495567322,0.017934211559135767,-0.06490460216729646,-0.05863673602849728,0.0181411692081,0.0136266317073,0.00992321255199,-0.00248512222766,0.00438060301517,-0.00394033490521
1766069896.3824568,61.1032977104187,0.017981869659080576,-0.06499338113894777,-0.0583233319024654,0.0118422378926,0.00317059120568,-0.00245357272633,0.00510701940061,0.000748444246577,-0.000508597715096
1766069896.5832295,61.304070472717285,0.01797312700056455,-0.06495468207935756,-0.05799775629801401,0.0114056822984,0.00481307169827,-0.00893760440357,0.00210443495439,-0.00374425628993,0.00224662698965
1766069896.78419,61.50503087043762,0.018023138253003796,-0.06499550750663063,-0.05773993317616991,-0.00342574704901,0.00581572799417,0.00155376675121,9.87391233556e-05,0.0022616570785,-0.00497447572489
1766069896.9831157,61.703956604003906,0.017461656510241827,-0.06538187808534149,-0.05764678495585519,0.0129347724049,0.0166383254196,0.00117992641918,-0.00167748022227,-0.00476349524992,-0.00119107089777
1766069897.1827495,61.90359044075012,0.017378578367798964,-0.06529143463800888,-0.0572341156613798,0.00227590288504,0.00817391312154,0.00238632442943,-0.000801291012753,0.0017296857985,0.00074310075651
1766069897.381951,62.10279202461243,0.017331419610558545,-0.0653688244348109,-0.05698645000238084,-0.0132993961544,0.0236100199487,-0.00637412784107,0.0107463640873,0.0109400944055,-0.00210451114763
1766069897.5830224,62.303863286972046,0.017284785163157734,-0.06532491140514901,-0.05668021976653535,0.0130708162813,0.0169558891881,-0.0212419104338,0.000699255919468,0.00424053163429,-0.000325314363734
1766069897.783592,62.504432916641235,0.017260409957102405,-0.06536745956475223,-0.056412676106712474,0.0218884629337,0.0407820775959,0.0121195245027,0.00308046147824,0.00315870733162,-0.00166939770644
1766069897.985842,62.70668292045593,0.016939600994883335,-0.06554526717940706,-0.0560575394141612,0.007269607964,0.0110711179528,0.00514816524975,-0.00618806078433,-0.00567991619768,0.00291866935949
1766069898.185857,62.90669798851013,0.016463522459031543,-0.06587637300430957,-0.05566811452257516,0.0117642861931,0.0252897067781,-0.00770354983815,0.00917131117444,0.0118624744208,-0.00125961623927
1766069898.3830209,63.103861808776855,0.0164814020487406,-0.06568091362505456,-0.05540615933985224,-0.00342779595867,0.017158632059,0.0384628701448,-0.00851711414157,0.00926818318826,0.00586910206984
1766069898.583248,63.304088830947876,0.015741240922185727,-0.06592741831226581,-0.054972288786386304,0.00225334159567,0.0402898736152,0.00746273281566,0.0108462016344,-0.000959229029964,-0.00251876412732
1766069898.7832952,63.504136085510254,0.01579476941979902,-0.06588057580540485,-0.05463880692244874,-0.00533642516003,0.0415771886561,-0.00119853732594,-0.00210663366466,0.0026908106373,0.00146282637651
1766069898.982822,63.70366287231445,0.01584224962890539,-0.06580106380210916,-0.054420827187225754,0.00468018196061,0.0364355131838,0.00392650845043,-0.000884737515438,0.0063803381489,-0.00113295590346
1766069899.1827798,63.90362071990967,0.015970331032581386,-0.06573859602979,-0.054113298660348856,0.000331371198439,0.0393275212351,-0.00487495181568,0.00118652342485,-0.00268925361174,-0.000264218205855
1766069899.3828878,64.10372877120972,0.015782285852189274,-0.06616855506540488,-0.05382444138942693,0.000372512373173,0.0326501469913,0.00258087398998,0.0187155048609,0.0182863678054,-0.00245915948254
1766069899.5819583,64.30279922485352,0.01576969201306564,-0.06638169949877369,-0.05355866207382622,-0.00786636293397,0.0474100563529,-0.00145412204274,-0.00561436607837,-0.00280548313471,0.00422550119619
1766069899.7844722,64.50531315803528,0.015747716772883284,-0.06669296477355512,-0.05337486650790793,0.0152972583799,0.027436690763,-0.00629020450123,0.00565091155135,0.00327940673729,0.000832506792351
1766069899.9837265,64.70456743240356,0.01551478068336652,-0.06659461090554712,-0.05301993371362762,-0.0075069189863,0.0323434335965,-0.00015521762379,0.000480207918595,0.00190253921014,0.000676045065477
1766069900.1866515,64.9074923992157,0.015348347679398779,-0.06663216147691724,-0.05273872886965047,-0.0200035217078,0.0299948476109,-0.00676227328785,0.00595936605373,0.000772286133591,-0.00119554217745
1766069900.382342,65.10318303108215,0.015448150681546799,-0.06661974032714554,-0.052517253735496754,-0.0161462630005,0.0403979834023,-0.0115287375213,-0.0053342233166,0.00131990380747,0.00363988462995
1766069900.5824776,65.3033185005188,0.015502555109487375,-0.06649090574822375,-0.0522986706278393,0.000461826208079,0.0395862761739,0.0113432336091,0.000912342058878,0.00522400850591,-0.00231461845179
1766069900.7828805,65.5037214756012,0.015283391515936065,-0.06666622497173504,-0.052073937282539444,-0.00393522706345,0.0338649753335,0.00852894070141,-0.00112315702586,-0.00266541175383,-0.00217603718703
1766069900.9845119,65.70535278320312,0.015278741387001435,-0.06654727737836016,-0.051947649351410045,-0.00190540951208,0.0527780823264,0.0106966424226,-0.00165065813212,0.00310655303461,0.00291419901113
1766069901.182838,65.90367889404297,0.015219429876692928,-0.06658248520020886,-0.051708917765630455,0.00419740762099,0.053635072321,0.00998424770824,0.00146517513917,0.00348802276117,-0.00226693450314
1766069901.3881109,66.1089518070221,0.015271623672869277,-0.06646729932187373,-0.051454681588879565,0.00252472899392,0.0424586556706,0.00417637112133,0.00239798829557,0.0020068473385,-0.00234591065747
1766069901.5840225,66.30486345291138,0.015243630312801723,-0.06629572100745616,-0.05124251503497352,-0.00223514426962,0.0286941564496,0.0152132439851,-0.00813266418277,-0.000114332957443,2.51257951461e-06
1766069901.7836208,66.5044617652893,0.014748651655588772,-0.06669573612556448,-0.050860355579736345,-0.00982160483018,0.0538442473713,0.00559353115551,-0.0102680005818,-0.00286210708159,0.00247014440755
1766069901.9830024,66.70384335517883,0.01347091481824459,-0.06807095090058936,-0.05040872923194015,-0.0439374166401,0.0560142885748,3.83782624406e-05,0.00118652389051,-0.000185858647588,0.000933834688469
1766069902.183126,66.90396690368652,0.012814520510945717,-0.06871378389227485,-0.049985736027051496,-0.0464287306042,0.0729424621764,-0.00756335971363,-0.0003974695444,0.00381435819132,0.00187111865888
1766069902.3822017,67.10304260253906,0.01287911673154235,-0.06873525562856361,-0.049745627087645634,-0.0118204326229,0.0622133765224,-0.0082471441985,0.000961516356479,-0.0015612359422,-0.000966063363747
1766069902.5827246,67.30356550216675,0.012951325847786327,-0.06880694043496798,-0.04941621902793805,-9.62455616955e-05,0.0407048653665,0.0165855813264,0.00360796211885,-0.000546466632064,-0.000276139600472
1766069902.7830558,67.50389671325684,0.012954589260418975,-0.06883072995364295,-0.04913428181466113,-0.0418520475598,0.0652276951674,-0.00196052310475,0.00178554963918,-0.000443648969073,-0.000654628163473
1766069902.9834504,67.70429134368896,0.012889069255819221,-0.06890464515746025,-0.04887530188221854,-0.0304681639047,0.0524070378247,-0.00256515262135,-0.0030617990285,0.00146891547761,0.00183684598814
1766069903.1849332,67.90577411651611,0.012842314133931517,-0.06890697958460328,-0.048618951821352396,-0.0365792008908,0.0700165968243,-0.00916076419361,0.00352898643018,0.00112544365207,-0.00186609349986
1766069903.381664,68.10250496864319,0.012698629311040637,-0.06916672933704848,-0.04823081273723016,-0.0210783843742,0.0685555193427,0.00945019009105,-0.0232200917542,-0.0137935989334,0.00577075161199
1766069903.5831957,68.30403661727905,0.0126757843823148,-0.06945640636224344,-0.047949058616278184,-0.0234026404889,0.0619305860105,0.00647758724682,0.0112336320583,0.0188555903004,-0.00500427793086
1766069903.7836413,68.50448226928711,0.01279862788908121,-0.06954411590826952,-0.04771971467334112,-0.0222090565459,0.0625675622228,-0.00210357425221,0.00720808312894,0.0115108079479,-0.00604586920745
1766069903.984506,68.70534682273865,0.012546549288932202,-0.06977698853965093,-0.04734322275779878,-0.0435775312455,0.0699785690609,0.000497095608632,-0.0124599613935,-0.00547428063887,0.000890621786668
1766069904.1822124,68.9030532836914,0.012799881447328689,-0.06957122189473948,-0.04701578710177354,-0.0463851186307,0.0749023560289,-0.000243909335216,0.001937543346,0.00356848926445,0.00130934441622
1766069904.381601,69.1024420261383,0.012948250728965126,-0.0694993956079022,-0.04672687573539197,-0.0562473590346,0.0581624585989,-0.000472791171153,0.00109562634156,0.00325556418088,-0.00064717897986
1766069904.5827992,69.303640127182,0.013045639201077961,-0.06945634810559459,-0.04631852159412035,-0.0315878483327,0.0591639619175,-0.0165031027556,0.00267962024213,-0.000105392260726,0.00142408428873
1766069904.7820313,69.50287222862244,0.013176033185653665,-0.06940727104013147,-0.04598752396013713,-0.0401414389582,0.074618295193,-0.000391728854259,0.00491926453673,0.0011418349312,0.000623891001298
1766069904.9846349,69.70547580718994,0.013235977196721066,-0.06943082753221107,-0.04563847924857942,-0.0304020642163,0.0668471421901,0.0180456567048,0.00436792180539,0.00156279276403,-0.00194655930464
1766069905.1857893,69.90663027763367,0.013278729254595244,-0.06940201545816778,-0.04524922080456151,-0.0333280469151,0.0624281134311,0.00294040920726,0.00071862742902,0.00201131774507,-0.00277506386702
1766069905.3825276,70.1033685207367,0.013362351472526431,-0.06946958484845013,-0.04488509594333122,-0.0368443018617,0.0608423169556,0.00866626980297,0.00257829281167,-0.000324439446691,-0.00111209567477
1766069905.582509,70.30334997177124,0.01343499855393405,-0.0692781867898575,-0.04442927927800735,-0.0136818670528,0.0569791089598,-0.00356174228199,-0.000309553624678,1.53071449439e-05,7.40381532451e-05
