timestamp_abs,timestamp_rel,x,y,z,vx,vy,vz,ax,ay,az,roll,pitch,yaw
1765456146.7585633,0.9506306648254395,-8.03101599358e-13,4.56451173991e-12,-0.121518958492,-2.59111711584e-07,1.4726884499e-06,3.93460784095e-07,-0.0418000009711,0.237574667157,0.184992949261,-0.09356822578576532,0.03195589825943047,-1.4828924365882696
1765456146.7736557,0.9657230377197266,-1.01426859344e-05,5.7647013851e-05,-0.122119729053,-0.00100673280798,0.00572187096207,0.00321700148414,-0.0504559227807,0.286771501967,0.223298754364,-0.09356822578576532,0.03195589825943047,-1.4828924365882696
1765456146.7971408,0.9892082214355469,-4.47565860226e-05,0.000254378726803,-0.122276165404,-0.00219393023559,0.0124694314205,0.0070832864405,-0.0542889886502,0.3085571318,0.240258829602,-0.09356822578576532,0.03195589825943047,-1.4828924365882696
1765456146.8148155,1.006882905960083,-0.000103261674084,0.000586898499538,-0.122297868229,-0.0033981471307,0.0193137237984,0.0107683576117,-0.0564851688079,0.321039350887,0.249973445381,-0.09356822578576532,0.03195589825943047,-1.4828924365882696
1765456146.835058,1.027125358581543,-0.000186493562149,0.00105995562022,-0.123607590437,-0.00462303769876,0.0262755171537,0.0027878690976,-0.0579244376547,0.329219585559,0.256284838445,-0.09356822578576532,0.03195589825943047,-1.4828924365882696
1765456146.8549724,1.0470397472381592,-0.000294642455816,0.00167463114221,-0.124590223847,-0.00586026534415,0.0333074295752,-0.00125220748299,-0.0589452549001,0.335021506891,0.260769450056,-0.09356822578576532,0.03195589825943047,-1.4828924365882696
1765456146.8753834,1.067450761795044,-0.000427726051712,0.00243102564615,-0.125300630375,-0.00710473659029,0.0403805117575,-0.0019776714706,-0.0597058944499,0.339344681142,0.264121633773,-0.09356822578576532,0.03195589825943047,-1.4828924365882696
1765456146.8982096,1.0902769565582275,-0.000585891172793,0.00332997361562,-0.125780731124,-0.00835479642572,0.0474853572702,-0.000380105111058,-0.0602910234513,0.342670322877,0.266709333638,-0.09356822578576532,0.03195589825943047,-1.4828924365882696
1765456146.9155583,1.1076257228851318,-0.000769017468644,0.00437079102647,-0.126075534647,-0.0096077169539,0.0546064618286,0.00262626880537,-0.0607505575959,0.345282133138,0.268747673431,-0.09356822578576532,0.03195589825943047,-1.4828924365882696
1765456146.935888,1.127955436706543,-0.000977208942627,0.00555406899268,-0.126227731399,-0.010863110287,0.0617416208319,0.00638785585905,-0.0611164521062,0.347361732766,0.270373830813,-0.09356822578576532,0.03195589825943047,-1.4828924365882696
1765456146.956139,1.1482064723968506,-0.00106003985576,0.00598795719604,-0.126393027576,-0.0101388017809,0.0571387613553,0.00650364388418,-0.0384595798089,0.212955398289,0.207337907914,-0.04633622745418018,0.03632905011831437,-1.5085304220863536
1765456146.9764342,1.168501615524292,-0.00114440388019,0.00642473439217,-0.123867044784,-0.00931182050686,0.0519266324765,0.0215339310792,-0.0201425401583,0.104294055911,0.156543322376,-0.04633622745418018,0.03632905011831437,-1.5085304220863536
1765456146.9964006,1.1884679794311523,-0.00122706339502,0.00684522940222,-0.121896712543,-0.00840478418919,0.0462396039448,0.0305152828216,-0.00527415454596,0.0160910072491,0.115265530945,-0.04633622745418018,0.03632905011831437,-1.5085304220863536
1765456147.0162876,1.2083549499511719,-0.00130501103876,0.00723162001462,-0.120365613533,-0.00743501283809,0.0401804913099,0.0354483146336,0.00682708470864,-0.0556966247552,0.0816323837948,-0.04633622745418018,0.03632905011831437,-1.5085304220863536
1765456147.0363061,1.2283735275268555,-0.00137548566395,0.00756753503466,-0.119180075507,-0.00641572746937,0.0338277394961,0.0376810221784,0.0166937491752,-0.114228190236,0.0541794562388,-0.04633622745418018,0.03632905011831437,-1.5085304220863536
1765456147.056756,1.2488234043121338,-0.0014359987982,0.00783821011032,-0.118266445208,-0.00535705746782,0.0272414132306,0.0381190278496,0.0247482484472,-0.162009530441,0.0317440687948,-0.04633622745418018,0.03632905011831437,-1.5085304220863536
1765456147.0769446,1.2690119743347168,-0.00148436587332,0.00803064241553,-0.117567237573,-0.00426659891754,0.0204664258687,0.0373714712879,0.0313292830438,-0.201049903074,0.0133930089792,-0.04633622745418018,0.03632905011831437,-1.5085304220863536
1765456147.0972357,1.2893030643463135,-0.0015186105272,0.00813309403582,-0.117038157287,-0.0031503508333,0.0135383397311,0.0358493301532,0.0367096350168,-0.232967520714,-0.00162602329371,-0.04633622745418018,0.03632905011831437,-1.5085304220863536
1765456147.116903,1.3089704513549805,-0.00153696400564,0.00813518148323,-0.116412456644,-0.00201396168454,0.00649098543743,0.0347098044656,0.0411093946301,-0.259068014835,-0.0138963475945,-0.04633622745418018,0.03632905011831437,-1.5085304220863536
1765456147.1374328,1.3295001983642578,-0.00153803485284,0.00802852993845,-0.115938966151,-0.000860492316687,-0.000657830744095,0.0330068560357,0.0447085394983,-0.280419058468,-0.0239491018744,-0.04633622745418018,0.03632905011831437,-1.5085304220863536
1765456147.1577353,1.3498027324676514,-0.001744445845,0.00904553607229,-0.115371527322,-0.00200966838246,0.00494006697973,0.0365848466119,0.0220438827951,-0.156058276615,0.0458236984708,-0.06166024778119946,0.037408637367583646,-1.5111014378027159
1765456147.177632,1.369699478149414,-0.00194392010838,0.0100102485559,-0.114882127157,-0.00324439980374,0.0110075736113,0.0402891654909,0.00349860556371,-0.0543004954853,0.102899345355,-0.06166024778119946,0.037408637367583646,-1.5111014378027159
1765456147.19769,1.3897573947906494,-0.00214324736362,0.0109598825696,-0.114445326072,-0.0045486132201,0.0174562604141,0.0441049080379,-0.011677030327,0.028968091778,0.149589716055,-0.06166024778119946,0.037408637367583646,-1.5111014378027159
1765456147.2178607,1.4099280834197998,-0.00234807223446,0.0119254491286,-0.114043302629,-0.00590940545702,0.0242155119034,0.048006512019,-0.0240953258805,0.0971071756623,0.187782473506,-0.06166024778119946,0.037408637367583646,-1.5111014378027159
1765456147.2378879,1.429955244064331,-0.00256316048201,0.0129330348525,-0.113663074678,-0.00731647134543,0.0312285075137,0.0519664417163,-0.0342579456543,0.152869385401,0.219023869121,-0.06166024778119946,0.037408637367583646,-1.5111014378027159
1765456147.2606325,1.452699899673462,-0.00279588243252,0.0140192499155,-0.113895812558,-0.00877723016647,0.0385220301491,0.0542208583114,-0.0425992340474,0.198637965081,0.244563184337,-0.06166024778119946,0.037408637367583646,-1.5111014378027159
1765456147.2782316,1.4702990055084229,-0.00304304980043,0.0151740062926,-0.114054772642,-0.0102546211193,0.04592076489,0.0568299201483,-0.0494144992215,0.236033268115,0.265433726551,-0.06166024778119946,0.037408637367583646,-1.5111014378027159
1765456147.2989392,1.49100661277771,-0.00331041056989,0.0164251883261,-0.114131952263,-0.0117572634348,0.0534577105024,0.0597644734658,-0.0549862497153,0.266605416494,0.282497002155,-0.06166024778119946,0.037408637367583646,-1.5111014378027159
1765456147.3188527,1.5109200477600098,-0.00359984860779,0.0177834625541,-0.11414029807,-0.0132790549715,0.0611004307589,0.0629236558813,-0.0595421261744,0.291603472538,0.296447624957,-0.06166024778119946,0.037408637367583646,-1.5111014378027159
1765456147.3400643,1.5321316719055176,-0.00391371542342,0.0192612628578,-0.114088080671,-0.0148186425249,0.0688400611056,0.0662428923174,-0.0632690059136,0.31205283051,0.307855972622,-0.06166024778119946,0.037408637367583646,-1.5111014378027159
1765456147.3598974,1.5519647598266602,-0.00420630342089,0.020321473972,-0.114299713913,-0.0158850645402,0.0711447727246,0.0622912213471,-0.0608278873233,0.26748673687,0.221896419992,-0.04124905713991082,0.03333221366899961,-1.493338286489942
1765456147.381257,1.57332444190979,-0.00452076065737,0.0214779257979,-0.114500713018,-0.016930223891,0.0732273218359,0.0579809460285,-0.0588322427288,0.231053404945,0.15162616181,-0.04124905713991082,0.03333221366899961,-1.493338286489942
1765456147.400814,1.592881441116333,-0.00485887946854,0.0227279434493,-0.114696250625,-0.0179671799095,0.0751745787187,0.0534473605675,-0.0572004415159,0.201262551708,0.0941707450397,-0.04124905713991082,0.03333221366899961,-1.493338286489942
1765456147.4205925,1.6126599311828613,-0.00522087924128,0.0240630255237,-0.116234109105,-0.0190000902165,0.0770206407475,0.0453286095291,-0.0558654386289,0.176890174264,0.0469425637889,-0.04124905713991082,0.03333221366899961,-1.493338286489942
1765456147.4408321,1.632899522781372,-0.00560509439227,0.0254685501818,-0.117586269666,-0.0200265618411,0.0787730732702,0.0378262112427,-0.0547734095029,0.156953628583,0.00835843852868,-0.04124905713991082,0.03333221366899961,-1.493338286489942
1765456147.460495,1.6525623798370361,-0.00601128887078,0.0269373078273,-0.118784164739,-0.0210483230094,0.0804513681177,0.0308699048632,-0.0538800834653,0.140644690541,-0.0231614917128,-0.04124905713991082,0.03333221366899961,-1.493338286489942
1765456147.480701,1.6727683544158936,-0.00643932485128,0.0284635216117,-0.11985342229,-0.0220667755978,0.0820706670597,0.0244007406464,-0.0531491945995,0.127301274221,-0.048910675292,-0.04124905713991082,0.03333221366899961,-1.493338286489942
1765456147.500645,1.6927123069763184,-0.00688913248935,0.0300425386281,-0.120814859411,-0.023083042207,0.0836428222015,0.0183694096231,-0.0525510989374,0.116382186806,-0.0699457582053,-0.04124905713991082,0.03333221366899961,-1.493338286489942
1765456147.5209072,1.7129745483398438,-0.00736017516588,0.031668776773,-0.121685425492,-0.0240969014853,0.0851748469037,0.0127369754652,-0.0520616650132,0.107446874043,-0.0871263769376,-0.04124905713991082,0.03333221366899961,-1.493338286489942
1765456147.5410628,1.7331302165985107,-0.0078525123794,0.0333394761772,-0.122478437009,-0.0251093183729,0.0866751119795,0.00746908129576,-0.0516611133018,0.100134232555,-0.101156742283,-0.04124905713991082,0.03333221366899961,-1.493338286489942
1765456147.5609064,1.7529737949371338,-0.00853863705974,0.0350625248844,-0.121943450077,-0.0278340980308,0.0882635555929,0.00479357548844,-0.07020189296,0.0954153436081,-0.124107797596,-0.05052118120896874,0.03015567626394256,-1.4614312197858117
1765456147.5813856,1.7734529972076416,-0.00925254726682,0.0368243987434,-0.1215397419,-0.0306263553762,0.0898347441606,0.00176768505354,-0.0853756011808,0.0915534216541,-0.142908035504,-0.05052118120896874,0.03015567626394256,-1.4614312197858117
1765456147.601499,1.7935664653778076,-0.00999987076986,0.0386217310541,-0.121250783603,-0.0334720334107,0.0913900676813,-0.00151768840017,-0.0977919979303,0.0883932742135,-0.158304422203,-0.05052118120896874,0.03015567626394256,-1.4614312197858117
1765456147.6213,1.8133673667907715,-0.0107874280902,0.0404578628001,-0.12106140549,-0.0363658969745,0.092936638439,-0.0049959063687,-0.107955351835,0.0858065578354,-0.170915342291,-0.05052118120896874,0.03015567626394256,-1.4614312197858117
1765456147.6418417,1.833909034729004,-0.0116178465745,0.0423274304876,-0.120957823186,-0.0392952146951,0.0944723760326,-0.00859743634212,-0.116272954289,0.0836896111368,-0.181240765598,-0.05052118120896874,0.03015567626394256,-1.4614312197858117
1765456147.662586,1.8546533584594727,-0.0125096839135,0.0442642195537,-0.12093054537,-0.0422966180437,0.0960289294405,-0.0123336811371,-0.123097499555,0.0819526684723,-0.189714128619,-0.05052118120896874,0.03015567626394256,-1.4614312197858117
1765456147.6826346,1.874701976776123,-0.0134392626367,0.0462053805559,-0.12096301435,-0.0452870709343,0.0975534286668,-0.0160444366265,-0.128676553736,0.0805327207897,-0.196640154054,-0.05052118120896874,0.03015567626394256,-1.4614312197858117
1765456147.7038817,1.895949125289917,-0.0144191539031,0.0481755764857,-0.120862607573,-0.0482927677898,0.0990696996886,-0.0192988495336,-0.133237584639,0.0793718743359,-0.202264974435,-0.05052118120896874,0.03015567626394256,-1.4614312197858117
1765456147.722307,1.9143743515014648,-0.0154528597837,0.0501779612415,-0.120831798235,-0.0513147764466,0.10058176511,-0.0226023901484,-0.136967717322,0.0784225031547,-0.20686660082,-0.05052118120896874,0.03015567626394256,-1.4614312197858117
1765456147.742472,1.9345393180847168,-0.0165416948477,0.052211699496,-0.120859171171,-0.0543495506493,0.102090041347,-0.0259175934695,-0.140018972379,0.0776459158682,-0.210629808691,-0.05052118120896874,0.03015567626394256,-1.4614312197858117
1765456147.7627628,1.9548301696777344,-0.0174510527818,0.0545415813749,-0.120744111425,-0.0550561802076,0.10621873255,-0.0250856551584,-0.116773108107,0.10588153366,-0.162138719195,-0.07774369762137927,0.040864255329529586,-1.4221381421144554
1765456147.7832952,1.9753625392913818,-0.0184095360317,0.0569149066617,-0.120661059249,-0.0556804843223,0.110451200364,-0.0240469719861,-0.0977499526037,0.128988033023,-0.122456918799,-0.07774369762137927,0.040864255329529586,-1.4221381421144554
1765456147.8035052,1.995572566986084,-0.019408214796,0.0593392585173,-0.120595936042,-0.056235252783,0.114767184769,-0.0228346704171,-0.0821824964474,0.1478970629,-0.0899840533368,-0.07774369762137927,0.040864255329529586,-1.4221381421144554
1765456147.8250856,2.017153024673462,-0.020442080336,0.0618254614059,-0.120539404839,-0.0567350108574,0.119155362166,-0.0214838654021,-0.0694405436469,0.16337409163,-0.063405501903,-0.07774369762137927,0.040864255329529586,-1.4221381421144554
1765456147.8432724,2.035339832305908,-0.0215035660884,0.0643752060781,-0.121586423739,-0.0571868397365,0.123597090994,-0.0226500151799,-0.0590134125143,0.176039419358,-0.0418628453265,-0.07774369762137927,0.040864255329529586,-1.4221381421144554
1765456147.8635147,2.055582046508789,-0.0225892690567,0.066995602045,-0.122475285606,-0.0576005541909,0.128084524944,-0.0232377488033,-0.050480450364,0.186403992389,-0.024195937894,-0.07774369762137927,0.040864255329529586,-1.4221381421144554
1765456147.8838747,2.075942039489746,-0.0237047332502,0.0697116383501,-0.123226334081,-0.057990241913,0.132639296454,-0.0233436834101,-0.0434894187261,0.194895657616,-0.00968974232481,-0.07774369762137927,0.040864255329529586,-1.4221381421144554
1765456147.9061904,2.0982577800750732,-0.0248309242819,0.0724905576416,-0.123848999149,-0.0583480153517,0.137201707496,-0.0230449522794,-0.0377704564655,0.201842202199,0.00220337154974,-0.07774369762137927,0.040864255329529586,-1.4221381421144554
1765456147.9242518,2.116319179534912,-0.0259728683475,0.0753517505981,-0.124360911416,-0.0586849660472,0.141790119643,-0.0224165946084,-0.033091509011,0.207525491513,0.01195540728,-0.07774369762137927,0.040864255329529586,-1.4221381421144554
1765456147.9461749,2.138242244720459,-0.0271268776911,0.0782932925516,-0.124774947477,-0.0590039630894,0.146393724376,-0.0215216500189,-0.029263973192,0.21217461263,0.0199504841747,-0.07774369762137927,0.040864255329529586,-1.4221381421144554
1765456147.964654,2.156721353530884,-0.028242620389,0.0805211010281,-0.12533570011,-0.0588129643667,0.143095738,-0.0254134505425,-0.02067297112,0.128828040374,-0.0358346119507,-0.07343375422649272,0.026671939065955667,-1.3865476573066366
1765456147.984915,2.1769824028015137,-0.0293677233785,0.0828060096303,-0.123996547803,-0.0585909791282,0.139496362845,-0.0249742657811,-0.0136430425456,0.0606263981249,-0.0811203439891,-0.07343375422649272,0.026671939065955667,-1.3865476573066366
1765456148.005116,2.19718337059021,-0.0304983584305,0.085117501463,-0.122867680625,-0.0583433141109,0.13564819448,-0.0253607542488,-0.00789053198662,0.00481777033782,-0.118226115353,-0.07343375422649272,0.026671939065955667,-1.3865476573066366
1765456148.0253205,2.2173879146575928,-0.0316335284585,0.0874356284203,-0.121929365717,-0.05807478706,0.13159626255,-0.0264325710296,-0.0031824578473,-0.0408581401261,-0.148635526562,-0.07343375422649272,0.026671939065955667,-1.3865476573066366
1765456148.0449345,2.237001895904541,-0.0327689230454,0.0897360506339,-0.121161413446,-0.0577889644549,0.127378075083,-0.0280612062141,0.000670009364503,-0.0782332838101,-0.173551900974,-0.07343375422649272,0.026671939065955667,-1.3865476573066366
1765456148.0653465,2.257413864135742,-0.0339042365844,0.0920062574118,-0.12054566548,-0.0574891127794,0.123023731705,-0.0301411088838,0.00382254824387,-0.108817994103,-0.193968131637,-0.07343375422649272,0.026671939065955667,-1.3865476573066366
1765456148.0854597,2.277527093887329,-0.0350375060108,0.0942321921929,-0.120064278782,-0.0571778297506,0.118559255381,-0.0325766377171,0.00640220600365,-0.133844833821,-0.210695290755,-0.07343375422649272,0.026671939065955667,-1.3865476573066366
1765456148.1062965,2.2983639240264893,-0.0361691899553,0.0964066656814,-0.119701473048,-0.0568570502075,0.114001501688,-0.0352917044321,0.00851347513241,-0.154327548586,-0.224401151295,-0.07343375422649272,0.026671939065955667,-1.3865476573066366
1765456148.1272206,2.3192880153656006,-0.0373018907683,0.098527743911,-0.119443647104,-0.0565277954184,0.109355949026,-0.0382290584558,0.0102423554607,-0.171100475422,-0.23563587056,-0.07343375422649272,0.026671939065955667,-1.3865476573066366
1765456148.1477425,2.3398098945617676,-0.0384289885555,0.100576550836,-0.120375335299,-0.0561923251552,0.104651960417,-0.0439247822074,0.0116573654291,-0.184828353682,-0.245046153068,-0.07343375422649272,0.026671939065955667,-1.3865476573066366
1765456148.1660619,2.3581292629241943,-0.0397037033066,0.103097915825,-0.121182339818,-0.0573941314736,0.105392051639,-0.0482482276818,-0.00415868159309,-0.135687013583,-0.240679995447,-0.09607554201780448,0.030912584096445914,-1.3636660435367847
1765456148.186026,2.3780934810638428,-0.0409791414888,0.105561643602,-0.121918087547,-0.0586532696058,0.106311126348,-0.0521655730863,-0.017097863317,-0.095484254397,-0.237077476145,-0.09607554201780448,0.030912584096445914,-1.3636660435367847
1765456148.206415,2.398482322692871,-0.0422693404802,0.107999939937,-0.122594587103,-0.0599627030461,0.107365744265,-0.0557446624039,-0.0276957394136,-0.0625560623613,-0.23409864086,-0.09607554201780448,0.030912584096445914,-1.3636660435367847
1765456148.2289531,2.4210205078125,-0.0435625501653,0.110397350001,-0.123204337126,-0.061308158941,0.108552021009,-0.0589605123051,-0.0363633098155,-0.0356254377647,-0.231637093716,-0.09607554201780448,0.030912584096445914,-1.3636660435367847
1765456148.2467196,2.4387869834899902,-0.0448706018767,0.112779962718,-0.123759605616,-0.0626852750346,0.109835640258,-0.061877158926,-0.043454075608,-0.0135940330221,-0.229600344626,-0.09607554201780448,0.030912584096445914,-1.3636660435367847
1765456148.267927,2.459994316101074,-0.0461958143866,0.115155821937,-0.124264503218,-0.0640880094481,0.111199353089,-0.0645206570491,-0.0492554338199,0.00443111046215,-0.227913064414,-0.09607554201780448,0.030912584096445914,-1.3636660435367847
1765456148.286866,2.478933334350586,-0.0475413009193,0.117533633459,-0.125274260502,-0.0655122303299,0.112628691784,-0.0682260686373,-0.0540025626602,0.0191807044986,-0.226617129143,-0.09607554201780448,0.030912584096445914,-1.3636660435367847
1765456148.3089867,2.501054048538208,-0.0489079788985,0.11991770183,-0.126164425476,-0.0669532880328,0.114111618936,-0.0714608092808,-0.0578869131991,0.0312495982386,-0.225519991056,-0.09607554201780448,0.030912584096445914,-1.3636660435367847
1765456148.3273382,2.5194056034088135,-0.0502986134853,0.122315008981,-0.126949574227,-0.0684090129773,0.115638807079,-0.0742843004435,-0.0610656773754,0.0411261958019,-0.224589741656,-0.09607554201780448,0.030912584096445914,-1.3636660435367847
1765456148.3471158,2.5391831398010254,-0.0514189085683,0.124135466803,-0.127474136975,-0.0669560416942,0.111329882806,-0.0731515865771,-0.031522117671,-0.0154330013401,-0.179030572747,-0.07906230357848315,0.031024944527312037,-1.3581903180194728
1765456148.3680315,2.560098886489868,-0.052552821551,0.125951300776,-0.127908899875,-0.0653951717888,0.106814755081,-0.0715542036031,-0.00734627198035,-0.0617160639155,-0.141728497513,-0.07906230357848315,0.031024944527312037,-1.3581903180194728
1765456148.3883505,2.5804178714752197,-0.0536906493359,0.127743861881,-0.128258363145,-0.063746176822,0.102130917737,-0.0695805247927,0.0124377640584,-0.0995912964798,-0.111186269357,-0.07906230357848315,0.031024944527312037,-1.3581903180194728
1765456148.4087558,2.600823163986206,-0.0548236075162,0.129496532244,-0.128527679407,-0.0620252346059,0.0973100467551,-0.0673067317387,0.0286270595864,-0.13058463535,-0.086180747997,-0.07906230357848315,0.031024944527312037,-1.3581903180194728
1765456148.4287796,2.62084698677063,-0.0559457617843,0.131197714432,-0.128540755926,-0.060245303198,0.0923760280462,-0.0643652870429,0.0418757533228,-0.155948385975,-0.0656731575295,-0.07906230357848315,0.031024944527312037,-1.3581903180194728
1765456148.4490733,2.6411406993865967,-0.0570511995158,0.132836245313,-0.128513189849,-0.0584172891939,0.0873502655226,-0.0613309477804,0.052717904431,-0.17670496941,-0.0488906435727,-0.07906230357848315,0.031024944527312037,-1.3581903180194728
1765456148.4689546,2.6610219478607178,-0.0581356908505,0.134403934025,-0.128449040255,-0.0565497836261,0.0822488809366,-0.0582423716872,0.0615909489828,-0.193691828173,-0.0351578109552,-0.07906230357848315,0.031024944527312037,-1.3581903180194728
1765456148.4887092,2.680776596069336,-0.0591959748405,0.135894326506,-0.128352680416,-0.0546494211048,0.0770839976565,-0.0551321145335,0.0688530797553,-0.207594698719,-0.0239213816378,-0.07906230357848315,0.031024944527312037,-1.3581903180194728
1765456148.5093071,2.7013745307922363,-0.060228583407,0.137300975994,-0.128227860688,-0.0527225021559,0.0718682738468,-0.052027666831,0.0747966523509,-0.218973276573,-0.0147296124509,-0.07906230357848315,0.031024944527312037,-1.3581903180194728
1765456148.5293245,2.7213919162750244,-0.0612375270729,0.13862766489,-0.128083015336,-0.0507639085208,0.0665822629664,-0.048948221566,0.0796655809026,-0.228294519259,-0.00720497738573,-0.07906230357848315,0.031024944527312037,-1.3581903180194728
1765456148.549018,2.7410852909088135,-0.0629323878439,0.140482145127,-0.128079687187,-0.0559759577038,0.06752027043,-0.049525415635,0.00459601203772,-0.16730259455,-0.0460392520797,-0.07897528478986482,0.014366891674515117,-1.3664880621858873
1765456148.5695047,2.7615721225738525,-0.0646223783341,0.142266195127,-0.12714953886,-0.0614615759442,0.0686808180843,-0.0481339838435,-0.0568212401267,-0.117402795251,-0.0776408700219,-0.07897528478986482,0.014366891674515117,-1.3664880621858873
1765456148.5895114,2.781578779220581,-0.0663329486301,0.144000501512,-0.126347246842,-0.067170861036,0.0700234397784,-0.0473248167811,-0.107073159142,-0.0765745167968,-0.10353236512,-0.07897528478986482,0.014366891674515117,-1.3664880621858873
1765456148.6098871,2.801954507827759,-0.0680938839039,0.14571078771,-0.125665877589,-0.0730796471033,0.0715082615762,-0.0470149943484,-0.148229470104,-0.0431361654457,-0.124766720156,-0.07897528478986482,0.014366891674515117,-1.3664880621858873
1765456148.630176,2.8222434520721436,-0.0699041278024,0.147392725767,-0.125085996774,-0.079122243247,0.0731238340528,-0.047104581056,-0.181888057014,-0.0157895051459,-0.142157933175,-0.07897528478986482,0.014366891674515117,-1.3664880621858873
1765456148.6503031,2.8423705101013184,-0.0717872898033,0.149067613013,-0.124603393935,-0.0852876279203,0.0748381158352,-0.0475372086975,-0.209423026343,0.00658188717138,-0.156406056564,-0.07897528478986482,0.014366891674515117,-1.3664880621858873
1765456148.6708179,2.8628852367401123,-0.0737544040849,0.150744337909,-0.124207525079,-0.0915530034295,0.0766335203813,-0.0482504294493,-0.23195177205,0.0248858628404,-0.168080845977,-0.07897528478986482,0.014366891674515117,-1.3664880621858873
1765456148.6906426,2.8827099800109863,-0.0758161373675,0.152431545819,-0.123889126546,-0.0979036328864,0.0784958905072,-0.0491923431052,-0.250388096512,0.0398648607279,-0.177648649067,-0.07897528478986482,0.014366891674515117,-1.3664880621858873
1765456148.7092388,2.90130615234375,-0.0779740449498,0.15413062629,-0.124370336099,-0.104309410912,0.0804107498615,-0.052049950312,-0.265470239322,0.0521186798543,-0.185624994162,-0.07897528478986482,0.014366891674515117,-1.3664880621858873
1765456148.7297182,2.921785593032837,-0.0802395600841,0.155850913968,-0.124808889219,-0.110771532286,0.0823700996839,-0.0547232180029,-0.277811548204,0.0621456480853,-0.192134255643,-0.07897528478986482,0.014366891674515117,-1.3664880621858873
1765456148.750355,2.942422389984131,-0.0819762235241,0.15729631998,-0.125039837626,-0.110904201794,0.0813756655243,-0.053539815416,-0.217644819011,0.0374101347409,-0.151476936523,-0.052508057507357576,0.02080962242690512,-1.3859927876935185
1765456148.7707365,2.962803840637207,-0.0838030573771,0.158757530689,-0.125230334827,-0.110816222848,0.080290717845,-0.0520440271552,-0.168400960744,0.0171651899078,-0.118190548665,-0.052508057507357576,0.02080962242690512,-1.3859927876935185
1765456148.7916088,2.9836761951446533,-0.0857001411875,0.160226513028,-0.125378917234,-0.110548512468,0.079131854845,-0.0502969174554,-0.128097421466,0.000595754490222,-0.0909393780582,-0.052508057507357576,0.02080962242690512,-1.3859927876935185
1765456148.8113785,3.003445863723755,-0.0876504110996,0.161696141342,-0.125485749053,-0.110133268045,0.0779124871845,-0.0483514914355,-0.0951121386499,-0.0129650275933,-0.0686305075932,-0.052508057507357576,0.02080962242690512,-1.3859927876935185
1765456148.8313484,3.0234158039093018,-0.0896408602735,0.163161265578,-0.125552744248,-0.109597863277,0.0766435582879,-0.0462546950824,-0.0681155471106,-0.0240637620473,-0.0503679429507,-0.052508057507357576,0.02080962242690512,-1.3859927876935185
1765456148.8520691,3.0441365242004395,-0.0916886560875,0.164636853333,-0.126141637103,-0.108977770618,0.0753261452618,-0.0453572986042,-0.0459778079045,-0.0331649438947,-0.0354933224122,-0.052508057507357576,0.02080962242690512,-1.3859927876935185
1765456148.8718724,3.0639398097991943,-0.0937276392294,0.166079493066,-0.126607743937,-0.108260148161,0.0739821423537,-0.0441280140715,-0.0278785467049,-0.0406058422605,-0.0233121786801,-0.052508057507357576,0.02080962242690512,-1.3859927876935185
1765456148.8920002,3.0840675830841064,-0.0957784547502,0.167505802962,-0.126976225464,-0.10747707222,0.0726113421854,-0.0426445241578,-0.0130763093212,-0.0466912809281,-0.0133341480977,-0.052508057507357576,0.02080962242690512,-1.3859927876935185
1765456148.9124434,3.10451078414917,-0.0978347417188,0.168913122475,-0.127259209121,-0.106640425781,0.0712187293555,-0.0409626525066,-0.000968032662247,-0.0516691888665,-0.00515989172837,-0.052508057507357576,0.02080962242690512,-1.3859927876935185
1765456148.9329402,3.1250076293945312,-0.0998954421563,0.170302014894,-0.127468914616,-0.105759777419,0.069806288696,-0.0391293791114,0.00894072639651,-0.0557428396235,0.00153859285631,-0.052508057507357576,0.02080962242690512,-1.3859927876935185
1765456148.952599,3.1446664333343506,-0.102128484464,0.172316794182,-0.127574852174,-0.106388237431,0.0746674867665,-0.0362290056613,1.9309776468e-05,0.0102590225129,0.0188801979229,-0.05865863636727398,0.015086080407485616,-1.4120793826772262
1765456148.973982,3.1660494804382324,-0.10434210091,0.17432053892,-0.12761708167,-0.107050765227,0.0797788480903,-0.0332171385972,-0.00727600104389,0.0642307312128,0.0330636189352,-0.05865863636727398,0.015086080407485616,-1.4120793826772262
1765456148.9928703,3.1849377155303955,-0.106555137598,0.176345788088,-0.127608643192,-0.107739518326,0.0850839128369,-0.0301376842217,-0.0132415883583,0.108364963281,0.044662202867,-0.05865863636727398,0.015086080407485616,-1.4120793826772262
1765456149.0129352,3.205002546310425,-0.108772578733,0.178412596072,-0.125171315133,-0.10844966336,0.0905471686069,-0.0213606057665,-0.01812090693,0.144462830403,0.0545972181794,-0.05865863636727398,0.015086080407485616,-1.4120793826772262
1765456149.0331376,3.2252049446105957,-0.11100947453,0.180547307018,-0.123031698358,-0.109179738099,0.0961590401043,-0.0136321630095,-0.0221159068497,0.174018387011,0.0626442629366,-0.05865863636727398,0.015086080407485616,-1.4120793826772262
1765456149.0532823,3.245349645614624,-0.113241602506,0.182739882889,-0.121151742757,-0.109921814392,0.101858401225,-0.00684910850722,-0.0253828087525,0.198187374761,0.0691473342144,-0.05865863636727398,0.015086080407485616,-1.4120793826772262
1765456149.0739734,3.266040802001953,-0.115489887122,0.185017544747,-0.119500578796,-0.110677075434,0.10765587036,-0.000885733783479,-0.0280561686682,0.217965257592,0.0744011895836,-0.05865863636727398,0.015086080407485616,-1.4120793826772262
1765456149.094122,3.286189317703247,-0.117744164373,0.187377848009,-0.118050124509,-0.111440727902,0.113514921943,0.00434697431196,-0.0302429986714,0.234143725489,0.0786392633911,-0.05865863636727398,0.015086080407485616,-1.4120793826772262
1765456149.1147263,3.306793689727783,-0.120011494159,0.189833341109,-0.116775715509,-0.112212508598,0.119434189103,0.00894022798354,-0.0320322674784,0.247380981202,0.0820545341241,-0.05865863636727398,0.015086080407485616,-1.4120793826772262
1765456149.1341817,3.326249122619629,-0.122292179721,0.192389152231,-0.115655721753,-0.112990897519,0.125402384497,0.0129701188243,-0.0334964208231,0.258212988194,0.084803265491,-0.05865863636727398,0.015086080407485616,-1.4120793826772262
1765456149.153855,3.3459224700927734,-0.12438265766,0.194634608865,-0.116698815719,-0.111745853367,0.127291639055,0.00797485124491,-0.0123604688434,0.221719684659,0.0346473262055,-0.056888782730591385,0.01881574700827642,-1.438704202517239
1765456149.1746755,3.3667428493499756,-0.126475775091,0.196967811784,-0.117611890737,-0.110423619874,0.129041837973,0.00319107401001,0.00493313485504,0.191860574003,-0.00635584076124,-0.056888782730591385,0.01881574700827642,-1.438704202517239
1765456149.1955767,3.387644052505493,-0.128568287983,0.199380792606,-0.118419285758,-0.109038796737,0.130685211824,-0.00138702808077,0.0190851151801,0.167425785633,-0.0398792707039,-0.056888782730591385,0.01881574700827642,-1.438704202517239
1765456149.2153227,3.4073901176452637,-0.130667483194,0.201879660263,-0.119141473926,-0.107599166467,0.132259705873,-0.0057742767658,0.0306777390532,0.147409978341,-0.067312323786,-0.056888782730591385,0.01881574700827642,-1.438704202517239
1765456149.2353954,3.4274628162384033,-0.132740929645,0.204422602353,-0.119792169025,-0.106120098423,0.133740738798,-0.00996063324048,0.0401603502565,0.131037315814,-0.0897268739979,-0.056888782730591385,0.01881574700827642,-1.438704202517239
1765456149.2555616,3.447628974914551,-0.134797436844,0.207017996333,-0.120383679908,-0.104607183767,0.135161325709,-0.0139552343283,0.047917876838,0.117643181853,-0.108040624439,-0.056888782730591385,0.01881574700827642,-1.438704202517239
1765456149.2758548,3.4679222106933594,-0.136835694588,0.209662708326,-0.120925844177,-0.103065842972,0.136534456402,-0.0177645073156,0.0542655806723,0.106683245769,-0.123004810299,-0.056888782730591385,0.01881574700827642,-1.438704202517239
1765456149.2957027,3.4877700805664062,-0.138852450998,0.212351435664,-0.120692852705,-0.101501336677,0.137868067317,-0.0196505539358,0.0594601749652,0.0977142669191,-0.135092683201,-0.056888782730591385,0.01881574700827642,-1.438704202517239
1765456149.316097,3.508164405822754,-0.140845159739,0.215079937924,-0.12052665904,-0.0999180343635,0.13916893841,-0.0216858366946,0.0637112674941,0.0903743368246,-0.144992555529,-0.056888782730591385,0.01881574700827642,-1.438704202517239
1765456149.3359723,3.5280396938323975,-0.142812018447,0.21784509981,-0.120418849458,-0.0983193964482,0.140442948884,-0.0238285521407,0.0671902985946,0.0843674468542,-0.153099473168,-0.056888782730591385,0.01881574700827642,-1.438704202517239
1765456149.3561997,3.548267126083374,-0.144727884543,0.220522334746,-0.120306754985,-0.0964548796897,0.140461320931,-0.0248560026704,0.0728143693273,0.0658494508553,-0.144905973875,-0.07186387902053985,0.014708363021722917,-1.458755808154718
1765456149.3781796,3.570246934890747,-0.146615662349,0.22322887081,-0.120236121727,-0.0945687534702,0.140412621179,-0.0258787352387,0.077417958698,0.0506915245772,-0.138201603789,-0.07186387902053985,0.014708363021722917,-1.458755808154718
1765456149.3964064,3.5884737968444824,-0.148468640123,0.225951264349,-0.120197706516,-0.0926686985053,0.140306547183,-0.026881327501,0.081184867926,0.0382884782203,-0.132716949714,-0.07186387902053985,0.014708363021722917,-1.458755808154718
1765456149.4167423,3.60880970954895,-0.150289971384,0.228691335043,-0.120185841618,-0.0907539907738,0.140155870058,-0.0278631008216,0.0842677299,0.0281377478304,-0.128228460057,-0.07186387902053985,0.014708363021722917,-1.458755808154718
1765456149.437715,3.6297824382781982,-0.152078183953,0.231444673783,-0.119278291725,-0.0888271389195,0.139968412679,-0.0266406072337,0.0867910001877,0.019829547007,-0.124381378835,-0.07186387902053985,0.014708363021722917,-1.458755808154718
1765456149.4592505,3.651317834854126,-0.153834410943,0.234211437055,-0.118515585815,-0.0868878503848,0.13975108073,-0.025796860663,0.0888567408102,0.0130278230602,-0.121262951742,-0.07186387902053985,0.014708363021722917,-1.458755808154718
1765456149.4770844,3.669151782989502,-0.155549282317,0.236975145636,-0.117876088423,-0.0849464320468,0.139507938033,-0.0252619245823,0.0905468604187,0.00746288093261,-0.11873777505,-0.07186387902053985,0.014708363021722917,-1.458755808154718
1765456149.497093,3.6891603469848633,-0.157227026171,0.239741203547,-0.117343762086,-0.082999482585,0.139244616139,-0.0249899191364,0.0919297838321,0.00290942286746,-0.11669338607,-0.07186387902053985,0.014708363021722917,-1.458755808154718
1765456149.5173757,3.7094430923461914,-0.158871146065,0.242514655352,-0.116904190875,-0.0810435087419,0.138964840944,-0.02493982005,0.0930618432885,-0.00081803247244,-0.115037782224,-0.07186387902053985,0.014708363021722917,-1.458755808154718
1765456149.5374305,3.7294979095458984,-0.160475545284,0.245284499428,-0.116542926146,-0.0790856682807,0.138671414999,-0.0250657733978,0.0939882875734,-0.00386847269196,-0.113697669156,-0.07186387902053985,0.014708363021722917,-1.458755808154718
1765456149.5578897,3.7499570846557617,-0.162055841864,0.247926443111,-0.116130330635,-0.0770423041176,0.136759933113,-0.0227129834708,0.0953854640798,-0.0240534312179,-0.0796104510829,-0.09211698608399708,0.009485405821670442,-1.467412280119966
1765456149.5780199,3.770087242126465,-0.163577030831,0.250523561515,-0.117600617669,-0.075018303871,0.134776980209,-0.0247054995663,0.0965277224767,-0.0405555970224,-0.0521019912645,-0.09211698608399708,0.009485405821670442,-1.467412280119966
1765456149.5980434,3.7901108264923096,-0.165059286431,0.253105193775,-0.118853773888,-0.0729900068728,0.132734534795,-0.0259035858407,0.0974619330467,-0.054052103387,-0.0295505614531,-0.09211698608399708,0.009485405821670442,-1.467412280119966
1765456149.6181893,3.8102567195892334,-0.166512224464,0.255684177248,-0.119916903187,-0.0709443219821,0.130634575079,-0.0264363387335,0.0982269790571,-0.065104695467,-0.0110376757805,-0.09211698608399708,0.009485405821670442,-1.467412280119966
1765456149.6385546,3.8306219577789307,-0.167916499253,0.258221175132,-0.120804719273,-0.0689075998001,0.128501078598,-0.026407392173,0.0988526735804,-0.0741440816473,0.0041408366021,-0.09211698608399708,0.009485405821670442,-1.467412280119966
1765456149.6588793,3.8509466648101807,-0.169281482803,0.260730003695,-0.12154071498,-0.0668673538653,0.12633378369,-0.0259167572115,0.0993645533892,-0.0815391907576,0.0165895775384,-0.09211698608399708,0.009485405821670442,-1.467412280119966
1765456149.678804,3.8708713054656982,-0.17060339184,0.263200815959,-0.122141984826,-0.0648293494049,0.12414302459,-0.0250495171625,0.0997832310825,-0.0875878122714,0.0267971765593,-0.09211698608399708,0.009485405821670442,-1.467412280119966
1765456149.6989815,3.8910489082336426,-0.171887229894,0.265640935125,-0.122627040046,-0.062786119176,0.121927127869,-0.0238763926424,0.100125848334,-0.092537591329,0.0351709459041,-0.09211698608399708,0.009485405821670442,-1.467412280119966
1765456149.719806,3.9118733406066895,-0.173160016921,0.26810207234,-0.122834673691,-0.0606926551215,0.119646626427,-0.0219986985686,0.100407231542,-0.096602724377,0.0420996996507,-0.09211698608399708,0.009485405821670442,-1.467412280119966
1765456149.7404754,3.9325428009033203,-0.174360408121,0.270462726463,-0.122968265058,-0.0586486857444,0.117398422769,-0.0200346764863,0.100637013004,-0.0999223688517,0.0477636658623,-0.09211698608399708,0.009485405821670442,-1.467412280119966
1765456149.762992,3.955059289932251,-0.175433906508,0.27245812073,-0.123114844688,-0.0557280054726,0.111876594666,-0.019414418212,0.110417683421,-0.138467255364,0.0347629679966,-0.09183961785646533,0.01259192601689633,-1.4639289985721968
1765456149.7802155,3.972282886505127,-0.176459649425,0.274392276157,-0.12321745897,-0.0527788939542,0.106224966886,-0.0188108331788,0.118411753895,-0.169971285871,0.024140514399,-0.09183961785646533,0.01259192601689633,-1.4639289985721968
1765456149.800181,3.992248296737671,-0.177437745079,0.276258927866,-0.123286415323,-0.0498016074972,0.100461950122,-0.0182265370769,0.124948583866,-0.195732441152,0.0154566320883,-0.09183961785646533,0.01259192601689633,-1.4639289985721968
1765456149.8204978,4.0125651359558105,-0.178369805097,0.278056118399,-0.12333019285,-0.0467893516415,0.0945881420324,-0.0176629982046,0.130299109575,-0.216818460557,0.00835003506397,-0.09183961785646533,0.01259192601689633,-1.4639289985721968
1765456149.8414114,4.033478736877441,-0.179245312849,0.27975834749,-0.123352140863,-0.0437679257832,0.0886545704465,-0.0171263863764,0.134675365126,-0.234064954548,0.00253793802252,-0.09183961785646533,0.01259192601689633,-1.4639289985721968
1765456149.860866,4.05293345451355,-0.180067072489,0.281367775896,-0.123358611413,-0.0407285812185,0.0826551925083,-0.0166166731783,0.138255965794,-0.248175832483,-0.00221753013663,-0.09183961785646533,0.01259192601689633,-1.4639289985721968
1765456149.881923,4.073990345001221,-0.18083271127,0.282876748707,-0.123536495919,-0.037676743215,0.0766055885893,-0.0165703318781,0.141185735212,-0.259721833412,-0.00614372525837,-0.09183961785646533,0.01259192601689633,-1.4639289985721968
1765456149.901,4.093067407608032,-0.181540753072,0.284279938706,-0.123679590329,-0.0346159610207,0.0705172703137,-0.0164701901115,0.143582927855,-0.269168989326,-0.00935054935878,-0.09183961785646533,0.01259192601689633,-1.4639289985721968
1765456149.9210713,4.113138675689697,-0.182190745359,0.285574524393,-0.123793797248,-0.0315462072408,0.0643942323015,-0.0163275581003,0.145544569282,-0.276899670658,-0.0119702051502,-0.09183961785646533,0.01259192601689633,-1.4639289985721968
1765456149.9414046,4.133471965789795,-0.18278179274,0.286757131328,-0.123883860931,-0.0284693463317,0.0582431856273,-0.0161518968057,0.147149881556,-0.283226085592,-0.0141104524529,-0.09183961785646533,0.01259192601689633,-1.4639289985721968
1765456149.9616182,4.153685569763184,-0.183501819038,0.288184746502,-0.123993970366,-0.0272389560949,0.0555996242869,-0.0168067037567,0.128009802689,-0.249417673851,-0.0265226180022,-0.10314291408298067,0.007833486528791721,-1.4521405160069611
1765456149.98169,4.173757314682007,-0.1841676402,0.289506747569,-0.124088141416,-0.0260854807956,0.0530931842942,-0.0174764569131,0.11234978246,-0.221756324311,-0.0366748404299,-0.10314291408298067,0.007833486528791721,-1.4521405160069611
1765456150.0017254,4.193792819976807,-0.184787150323,0.290737468362,-0.124171282241,-0.0249891898566,0.0506878973597,-0.0181557481788,0.0995359981513,-0.199122473172,-0.0449790500589,-0.10314291408298067,0.007833486528791721,-1.4521405160069611
1765456150.022011,4.214078426361084,-0.185368156344,0.291891337873,-0.124798067298,-0.0239301245625,0.0483460920142,-0.0201497207091,0.0890424193152,-0.180586957389,-0.0518806281794,-0.10314291408298067,0.007833486528791721,-1.4521405160069611
1765456150.0421052,4.234172582626343,-0.185915662411,0.292977300564,-0.125344700843,-0.0228986452688,0.0460497298349,-0.0219050406746,0.0804427747134,-0.165396825334,-0.0575144484134,-0.10314291408298067,0.007833486528791721,-1.4521405160069611
1765456150.0623727,4.254440069198608,-0.186425069345,0.293985221116,-0.125815582591,-0.0219169936012,0.0438463267679,-0.0234336819429,0.073411792117,-0.15297752674,-0.0621014691061,-0.10314291408298067,0.007833486528791721,-1.4521405160069611
1765456150.0824761,4.274543523788452,-0.18690405147,0.294929868498,-0.126224570123,-0.0209618204637,0.0416900723506,-0.0247726990227,0.067662091942,-0.142821443672,-0.0658359765727,-0.10314291408298067,0.007833486528791721,-1.4521405160069611
1765456150.10258,4.294647455215454,-0.187356660487,0.295818760307,-0.126581757176,-0.0200231449785,0.0395614586145,-0.0259498878795,0.0629565835661,-0.134509786979,-0.0688777457652,-0.10314291408298067,0.007833486528791721,-1.4521405160069611
1765456150.1229973,4.3150646686553955,-0.187784876991,0.296655345822,-0.126894362934,-0.0190972596674,0.037453675639,-0.0269856654249,0.0591037494496,-0.127704266318,-0.0713555591355,-0.10314291408298067,0.007833486528791721,-1.4521405160069611
1765456150.1430814,4.335148811340332,-0.188186160359,0.297434327624,-0.12716368919,-0.0181939808643,0.0353891023525,-0.0278850458838,0.0559534570717,-0.122139692496,-0.0733706192911,-0.10314291408298067,0.007833486528791721,-1.4521405160069611
1765456150.165258,4.357325315475464,-0.188475824263,0.298131873281,-0.125992691239,-0.0164223613249,0.0330307775744,-0.0194818489446,0.0630576399959,-0.121041900295,0.00715813116695,-0.10370593962693704,-6.041303479459777e-05,-1.4376778202331224
1765456150.1833832,4.375450611114502,-0.18874033663,0.298780522821,-0.124934562742,-0.0146248443365,0.0306757063027,-0.0112115688169,0.0688699000152,-0.120143745815,0.0730033239358,-0.10370593962693704,-6.041303479459777e-05,-1.4376778202331224
1765456150.203582,4.395649433135986,-0.188977492773,0.299381135227,-0.123963300011,-0.0128045977034,0.028320966842,-0.00310054256699,0.0736266532693,-0.119408696243,0.126854757857,-0.10370593962693704,-6.041303479459777e-05,-1.4376778202331224
1765456150.2241738,4.41624116897583,-0.189189493618,0.299943983492,-0.123056158051,-0.0109353306665,0.0259194836502,0.00489338316301,0.0775314513076,-0.118805297248,0.171027334501,-0.10370593962693704,-6.041303479459777e-05,-1.4376778202331224
1765456150.2447627,4.436830043792725,-0.189364997834,0.300447108502,-0.122203128535,-0.00908163037831,0.023568136338,0.0126187787437,0.0807220031998,-0.118312268983,0.207087079266,-0.10370593962693704,-6.041303479459777e-05,-1.4376778202331224
1765456150.2620318,4.454099178314209,-0.189507321139,0.300900673865,-0.121395651977,-0.0072219347844,0.0212264151945,0.0200944651196,0.0833289762585,-0.117909419743,0.236519735133,-0.10370593962693704,-6.041303479459777e-05,-1.4376778202331224
1765456150.2839215,4.475988864898682,-0.189616156339,0.301306774791,-0.120624973411,-0.00535215712529,0.0188848488262,0.0273221676636,0.0854605659673,-0.117580030342,0.260555156249,-0.10370593962693704,-6.041303479459777e-05,-1.4376778202331224
1765456150.3039563,4.496023654937744,-0.189690518986,0.301665303628,-0.120435868283,-0.00347476406018,0.0165443968844,0.0329828537922,0.0872040933891,-0.117310607268,0.28008199408,-0.10370593962693704,-6.041303479459777e-05,-1.4376778202331224
1765456150.3255088,4.517576217651367,-0.189730556413,0.301984176127,-0.120181329598,-0.00154253101896,0.014140295675,0.0387666492705,0.0886363469832,-0.117089284585,0.296112813776,-0.10370593962693704,-6.041303479459777e-05,-1.4376778202331224
1765456150.3466754,4.538742780685425,-0.189732911668,0.302246634851,-0.119902079062,0.000347138192271,0.011800930009,0.0443356583032,0.0898057533387,-0.11690857905,0.309191152979,-0.10370593962693704,-6.041303479459777e-05,-1.4376778202331224
1765456150.365614,4.557681322097778,-0.190058177447,0.302890679919,-0.119897833473,-0.00131519235595,0.0137077132232,0.0431201221263,0.0516544916978,-0.0700718469775,0.236556813711,-0.10404903799912332,-0.00915550049985307,-1.4241771914030747
1765456150.3855278,4.577595233917236,-0.190360703121,0.303504094128,-0.119876535081,-0.00311247449955,0.0157801804749,0.0415223328985,0.0204616680837,-0.0317777025807,0.177165396994,-0.10404903799912332,-0.00915550049985307,-1.4241771914030747
1765456150.405903,4.597970485687256,-0.190654096965,0.304105103936,-0.119850866211,-0.0050201499844,0.0179873270351,0.0396232589796,-0.00507491308343,-0.000427493997136,0.128538979729,-0.10404903799912332,-0.00915550049985307,-1.4241771914030747
1765456150.4279418,4.620009183883667,-0.190951933429,0.304714321383,-0.119824058039,-0.00703227034836,0.0203195723997,0.0374917847816,-0.0260472224977,0.0253193462049,0.0885992714723,-0.10404903799912332,-0.00915550049985307,-1.4241771914030747
1765456150.446513,4.638580322265625,-0.191256187154,0.305321825531,-0.119651280851,-0.00911400599308,0.0227411626045,0.0355302520681,-0.0431616609191,0.0463300371346,0.0560398363592,-0.10404903799912332,-0.00915550049985307,-1.4241771914030747
1765456150.4670851,4.659152507781982,-0.191579023685,0.305951492959,-0.119519985807,-0.0112648819892,0.0252464383086,0.0333417391237,-0.0571598584776,0.0635150475468,0.0294015746064,-0.10404903799912332,-0.00915550049985307,-1.4241771914030747
1765456150.4873066,4.6793739795684814,-0.191922558705,0.306601719336,-0.119439484187,-0.0134562465729,0.0278026614778,0.0309680782271,-0.0685926280437,0.0775505877095,0.00764056058704,-0.10404903799912332,-0.00915550049985307,-1.4241771914030747
1765456150.5073645,4.699431896209717,-0.192293161287,0.307282373771,-0.119401071154,-0.0156868850429,0.0304071614851,0.0284651838946,-0.0779360559056,0.0890211291433,-0.0101463493072,-0.10404903799912332,-0.00915550049985307,-1.4241771914030747
1765456150.527916,4.719983339309692,-0.192700898707,0.308009653043,-0.119395069389,-0.0179784451051,0.0330841968213,0.0258589470657,-0.0855949162147,0.0984235963972,-0.0247278856902,-0.10404903799912332,-0.00915550049985307,-1.4241771914030747
1765456150.5530896,4.74515700340271,-0.193090360168,0.30801967877,-0.119405648893,-0.0195978123939,0.0279283531556,0.0230392000242,-0.0827032499201,0.0179946957484,-0.0376413598614,-0.06988373552628188,-0.012481299761630659,-1.4151557332104312
1765456150.5710466,4.763113975524902,-0.19348505394,0.307988448667,-0.119486400367,-0.0210682244844,0.0223312939608,0.0202415667574,-0.0803531962906,-0.0473697725651,-0.0481330118424,-0.06988373552628188,-0.012481299761630659,-1.4151557332104312
1765456150.5917823,4.783849716186523,-0.193908159947,0.307937114449,-0.119595120585,-0.0225126099676,0.0165223717946,0.0174650894133,-0.0784426980127,-0.10050843399,-0.056657909091,-0.06988373552628188,-0.012481299761630659,-1.4151557332104312
1765456150.610497,4.802564382553101,-0.194368836636,0.307851388055,-0.120277015547,-0.0239688326916,0.0105105156736,0.0133846211204,-0.0768834536388,-0.143877307873,-0.063716082771,-0.06988373552628188,-0.012481299761630659,-1.4151557332104312
1765456150.6322258,4.82429313659668,-0.194855107588,0.307706365754,-0.120900113301,-0.0254002573488,0.00438354410278,0.0096169596903,-0.0756125472687,-0.179226339111,-0.0694429286612,-0.06988373552628188,-0.012481299761630659,-1.4151557332104312
1765456150.651072,4.843139410018921,-0.195377841809,0.307490766693,-0.121468284133,-0.0268435057974,-0.00190265963006,0.00610274979999,-0.0745736045982,-0.208123524439,-0.0741011389622,-0.06988373552628188,-0.012481299761630659,-1.4151557332104312
1765456150.6717741,4.863841533660889,-0.195925434356,0.30719185482,-0.121989779089,-0.02826715525,-0.00824643514103,0.00285562286825,-0.0737255731363,-0.231710699186,-0.0778816752857,-0.06988373552628188,-0.012481299761630659,-1.4151557332104312
1765456150.6923985,4.884465932846069,-0.196508689565,0.306797763492,-0.122468886322,-0.0297020935769,-0.0147169802663,-0.00017661502131,-0.0730317631602,-0.251008352493,-0.0809549962874,-0.06988373552628188,-0.012481299761630659,-1.4151557332104312
1765456150.7118063,4.903873682022095,-0.197116031561,0.306304869873,-0.122909781695,-0.0311202415763,-0.0212072436162,-0.00297774494109,-0.0724650474928,-0.266771000554,-0.0834470474749,-0.06988373552628188,-0.012481299761630659,-1.4151557332104312
1765456150.731937,4.924004316329956,-0.197753071969,0.305704616551,-0.123316076156,-0.0325371392317,-0.0277540499366,-0.00558015771453,-0.072001799412,-0.279655797785,-0.0854673315953,-0.06988373552628188,-0.012481299761630659,-1.4151557332104312
1765456150.751448,4.943515300750732,-0.198448332132,0.306018744244,-0.121440169535,-0.0342361278369,-0.02421343723,0.00177492992344,-0.0747282360932,-0.17900645653,-0.0248268221657,-0.08984060753035981,0.005071758309757828,-1.397736529152441
1765456150.7719193,4.96398663520813,-0.199174558047,0.306254288848,-0.119811020229,-0.0359463736697,-0.0203216884226,0.00859432398124,-0.0769588624306,-0.0966604871591,0.0247220053226,-0.08984060753035981,0.005071758309757828,-1.397736529152441
1765456150.7923522,4.984419584274292,-0.199930149638,0.306447209258,-0.118387933887,-0.0376607986844,-0.0161334799534,0.0149273707586,-0.078783322385,-0.0293085864833,0.0651925161915,-0.08984060753035981,0.005071758309757828,-1.397736529152441
1765456150.8125384,5.004605770111084,-0.20071757649,0.306624580766,-0.117136678648,-0.0393817436323,-0.0117080831245,0.0208179445658,-0.0802759517566,0.0257934314838,0.0982528601284,-0.08984060753035981,0.005071758309757828,-1.397736529152441
1765456150.8325665,5.024633884429932,-0.201538067349,0.306809378539,-0.116029247423,-0.0411092566229,-0.00708644616775,0.0263058841893,-0.0814974396583,0.0708859705847,0.125263843104,-0.08984060753035981,0.005071758309757828,-1.397736529152441
1765456150.8528433,5.044910669326782,-0.202391570677,0.307020697806,-0.115043492667,-0.0428412074479,-0.00230308297436,0.0314225547159,-0.0824970877151,0.107789053313,0.147330120832,-0.08984060753035981,0.005071758309757828,-1.397736529152441
1765456150.875459,5.067526340484619,-0.20328014389,0.307274036585,-0.114160025278,-0.0445798640986,0.00261787058954,0.0362016474817,-0.0833154321257,0.137999117027,0.165359136731,-0.08984060753035981,0.005071758309757828,-1.397736529152441
1765456150.8930488,5.085116147994995,-0.204200999367,0.307582000333,-0.114099557874,-0.0463186394116,0.0076440619279,0.0389150340792,-0.0839850952143,0.16272044989,0.179942493355,-0.08984060753035981,0.005071758309757828,-1.397736529152441
1765456150.9138176,5.105885028839111,-0.20515579582,0.307954803507,-0.114012533596,-0.0480596745599,0.0127592806939,0.041658988703,-0.0845331094671,0.182950985198,0.191873975663,-0.08984060753035981,0.005071758309757828,-1.397736529152441
1765456150.9332778,5.125345230102539,-0.206145369138,0.308401071151,-0.113901467207,-0.0498035832403,0.0179497615041,0.0444094925768,-0.0849816261891,0.199508462188,0.20163530502,-0.08984060753035981,0.005071758309757828,-1.397736529152441
1765456150.952711,5.144778490066528,-0.207034364648,0.308347675348,-0.114063196933,-0.0502134318531,0.01746147351,0.0408240838753,-0.0706480606115,0.14989215729,0.13085385562,-0.04032994615226483,0.012711234593434578,-1.3839227125781999
1765456150.973528,5.165595293045044,-0.207951671556,0.308356881172,-0.114219643745,-0.050569893853,0.0167901907537,0.0369481532139,-0.0589189261062,0.109291211863,0.0729359804732,-0.04032994615226483,0.012711234593434578,-1.3839227125781999
1765456150.9938047,5.1858720779418945,-0.208909298453,0.308417282346,-0.114375195349,-0.0509003085925,0.0159991793803,0.0328594798225,-0.0492981526405,0.0759884563807,0.0254318160555,-0.04032994615226483,0.012711234593434578,-1.3839227125781999
1765456151.0155666,5.207633972167969,-0.2098756766,0.30850611732,-0.11455349358,-0.0511815773213,0.0150600511461,0.0285968133248,-0.041429863516,0.0487520070752,-0.0134144130548,-0.04032994615226483,0.012711234593434578,-1.3839227125781999
1765456151.034816,5.226883411407471,-0.210856187996,0.308615040083,-0.115853190204,-0.0514316546523,0.014018617144,0.0216187321949,-0.0349968370147,0.0264837861939,-0.0453764438255,-0.04032994615226483,0.012711234593434578,-1.3839227125781999
1765456151.0543995,5.246466875076294,-0.21185037359,0.30873548577,-0.117017970707,-0.0516580817152,0.012896806162,0.015083607492,-0.0297361412469,0.00827364275305,-0.0714674132071,-0.04032994615226483,0.012711234593434578,-1.3839227125781999
1765456151.0744765,5.266543865203857,-0.212857078767,0.308860146514,-0.118067845763,-0.051865758471,0.011709661316,0.00895966792441,-0.0254327661452,-0.00662269061062,-0.0927685629601,-0.04032994615226483,0.012711234593434578,-1.3839227125781999
1765456151.0950482,5.287115573883057,-0.213873819525,0.308982664083,-0.119019406206,-0.052057721423,0.0104689574429,0.00322104504731,-0.0219121247619,-0.0188095547489,-0.110157218868,-0.04032994615226483,0.012711234593434578,-1.3839227125781999
1765456151.1147451,5.306812524795532,-0.214899787047,0.309098120319,-0.119886064876,-0.0522370834073,0.00918427363612,-0.0021579890342,-0.0190313300699,-0.0287815597611,-0.124350896434,-0.04032994615226483,0.012711234593434578,-1.3839227125781999
1765456151.1348245,5.326891899108887,-0.215933512078,0.309202317783,-0.12067886429,-0.0524060071468,0.00786359277036,-0.00719902108195,-0.0166739179313,-0.0369418516858,-0.135934011974,-0.04032994615226483,0.012711234593434578,-1.3839227125781999
1765456151.1543093,5.346376657485962,-0.217050738937,0.309446691884,-0.121350749513,-0.0533160118326,0.00804481624015,-0.0107107971695,-0.0229936901695,-0.0267525827053,-0.130244530284,-0.034504614162852755,0.012259032961231025,-1.3754907450928455
1765456151.1753771,5.3674445152282715,-0.218176163733,0.309679676384,-0.120129829032,-0.0542486556091,0.00826359033488,-0.0095180973788,-0.0281655318416,-0.0184141040488,-0.125217514442,-0.034504614162852755,0.012259032961231025,-1.3754907450928455
1765456151.1954658,5.387533187866211,-0.219312373644,0.309904795969,-0.11911067957,-0.0551998397512,0.00851274371413,-0.00882736189627,-0.0323978996441,-0.0115903242766,-0.121145360407,-0.034504614162852755,0.012259032961231025,-1.3754907450928455
1765456151.2155697,5.407637119293213,-0.220461892218,0.310124998485,-0.118264942826,-0.0561665875096,0.0087865792057,-0.00855495900974,-0.0358618234218,-0.00600549467053,-0.117847141288,-0.034504614162852755,0.012259032961231025,-1.3754907450928455
1765456151.235617,5.427684307098389,-0.221625778687,0.31034254116,-0.117567967688,-0.0571459188187,0.00908073339132,-0.00862684398747,-0.0386968545406,-0.00143461876728,-0.115176226804,-0.034504614162852755,0.012259032961231025,-1.3754907450928455
1765456151.2556162,5.447683572769165,-0.222805151014,0.310559308737,-0.116998447281,-0.0581355126249,0.00939152494149,-0.00898005799293,-0.0410171734676,0.00230639479731,-0.113013513222,-0.034504614162852755,0.012259032961231025,-1.3754907450928455
1765456151.2760262,5.468093633651733,-0.224001924525,0.310777006592,-0.116537990592,-0.0591341792574,0.00971600100884,-0.00956226517186,-0.0429164611385,0.00536858631639,-0.111262040589,-0.034504614162852755,0.012259032961231025,-1.3754907450928455
1765456151.2958617,5.487929105758667,-0.225215008829,0.310996596323,-0.116170437444,-0.0601390482767,0.0100515727143,-0.0103241424306,-0.0444708388395,0.00787468493767,-0.109843665787,-0.034504614162852755,0.012259032961231025,-1.3754907450928455
1765456151.3162389,5.508306264877319,-0.226446876638,0.3112194183,-0.115698887891,-0.0611501898359,0.0103963901648,-0.010794102769,-0.0457431150022,0.00992595570356,-0.10865995614,-0.034504614162852755,0.012259032961231025,-1.3754907450928455
1765456151.3361707,5.52823805809021,-0.22769664346,0.311446084779,-0.115320126001,-0.0621655336983,0.0107486068214,-0.0114533184732,-0.0467843798703,0.0116047706072,-0.107706694369,-0.034504614162852755,0.012259032961231025,-1.3754907450928455
1765456151.3565583,5.548625707626343,-0.22890653849,0.312016048666,-0.114782662832,-0.062591104525,0.0144623817055,-0.00713377227655,-0.041088421533,0.0499389094203,-0.0429457345061,-0.04432147951050798,0.0172957540578975,-1.3711212966923525
1765456151.3763351,5.568402528762817,-0.230135425443,0.312605495042,-0.114302963772,-0.062997023595,0.0183193110756,-0.00272264071829,-0.0364251163772,0.0813232308258,0.0100582860497,-0.04432147951050798,0.0172957540578975,-1.3711212966923525
1765456151.396745,5.588812351226807,-0.231375595397,0.31322576219,-0.113863157821,-0.0633836384524,0.0222870892082,0.00173848636665,-0.0326095737805,0.107002059723,0.0534113387293,-0.04432147951050798,0.0172957540578975,-1.3711212966923525
1765456151.4184773,5.610544681549072,-0.232729010663,0.313929231122,-0.113441099187,-0.0638041746008,0.026537488325,0.00633467688483,-0.0294513410584,0.12825715402,0.0892815276507,-0.04432147951050798,0.0172957540578975,-1.3711212966923525
1765456151.441533,5.633600473403931,-0.234016910982,0.314658246895,-0.113040487098,-0.0641725119286,0.0307378679347,0.0108470197966,-0.0268767838631,0.145584077263,0.118507488093,-0.04432147951050798,0.0172957540578975,-1.3711212966923525
1765456151.459309,5.651376485824585,-0.235294336305,0.315435996736,-0.112656404671,-0.0645224359363,0.0349519549856,0.0152687886986,-0.0247815286554,0.159685269586,0.142277923902,-0.04432147951050798,0.0172957540578975,-1.3711212966923525
1765456151.480513,5.6725804805755615,-0.236584881071,0.316279299586,-0.113202738732,-0.0648664337918,0.0392207920051,0.0174305131754,-0.0230725426838,0.171186846948,0.161477308381,-0.04432147951050798,0.0172957540578975,-1.3711212966923525
1765456151.4994092,5.691476583480835,-0.237882005927,0.317189708795,-0.113624099919,-0.0652035534676,0.0435214421505,0.0199056925348,-0.0216775595421,0.180575166565,0.177167943366,-0.04432147951050798,0.0172957540578975,-1.3711212966923525
1765456151.519327,5.711394309997559,-0.23918785906,0.318172641446,-0.113935918574,-0.0655358565775,0.0478538853865,0.0226245613547,-0.0205378711605,0.188245337244,0.19000105279,-0.04432147951050798,0.0172957540578975,-1.3711212966923525
1765456151.5395517,5.731619119644165,-0.240502981567,0.319232096961,-0.11415249685,-0.0658644886085,0.0522154718345,0.0255252924544,-0.0196060916787,0.194516268645,0.200502878737,-0.04432147951050798,0.0172957540578975,-1.3711212966923525
1765456151.5603883,5.752455711364746,-0.241926981859,0.319747191412,-0.11461332827,-0.0671873873971,0.0504397212922,0.0215271178801,-0.029797794039,0.132010392029,0.121733179102,-0.022577360098877862,-0.004400302057989145,-1.378228741009556
1765456151.583564,5.775631427764893,-0.243363160867,0.320319223466,-0.115016651652,-0.0685466046608,0.0484439305643,0.0173351044227,-0.0381357403578,0.0808736314168,0.0573029737354,-0.022577360098877862,-0.004400302057989145,-1.378228741009556
1765456151.6000423,5.792109727859497,-0.244813229315,0.320925628974,-0.11538387577,-0.0699348235178,0.0462648693652,0.0130009796593,-0.0449570942631,0.039038156784,0.00460351753708,-0.022577360098877862,-0.004400302057989145,-1.378228741009556
1765456151.6199853,5.8120527267456055,-0.246281914585,0.321550290687,-0.116646495131,-0.071347819347,0.0439370775191,0.00639709606739,-0.0505389871222,0.00480431694048,-0.0386820568764,-0.022577360098877862,-0.004400302057989145,-1.378228741009556
1765456151.640338,5.83240532875061,-0.247770526059,0.322178277965,-0.11776954188,-0.0727806195646,0.04148647423,0.000151939596897,-0.0551067666531,-0.0232099493394,-0.0740596440275,-0.022577360098877862,-0.004400302057989145,-1.378228741009556
1765456151.660613,5.852680444717407,-0.249282238086,0.322798642051,-0.118776389742,-0.0742305972955,0.0389346484361,-0.00575589452927,-0.0588452556999,-0.0461381635695,-0.102974843491,-0.022577360098877862,-0.004400302057989145,-1.378228741009556
1765456151.6806645,5.872731924057007,-0.250816100931,0.323400511392,-0.119685405782,-0.0756928577607,0.0363009635346,-0.0113403341049,-0.0619045016513,-0.06490056883,-0.126600610478,-0.022577360098877862,-0.004400302057989145,-1.378228741009556
1765456151.7006798,5.892747163772583,-0.252375780099,0.323977325254,-0.120511805396,-0.0771668647335,0.0335988392612,-0.0166204719443,-0.0644083144999,-0.0802564938214,-0.145904203796,-0.022577360098877862,-0.004400302057989145,-1.378228741009556
1765456151.7208593,5.91292667388916,-0.25396122319,0.324522158813,-0.12126745837,-0.0786497468405,0.0308413080622,-0.0216088806897,-0.0664574984153,-0.0928241721597,-0.161672726562,-0.022577360098877862,-0.004400302057989145,-1.378228741009556
1765456151.7415903,5.933657646179199,-0.255598274343,0.325038608363,-0.121969034799,-0.0801609435275,0.0280073811574,-0.0263694333121,-0.0681384499835,-0.103133475513,-0.174579741553,-0.022577360098877862,-0.004400302057989145,-1.378228741009556
1765456151.7634172,5.955484628677368,-0.257020724886,0.326213600781,-0.122732796535,-0.0788975052044,0.0318894382402,-0.0260992918543,-0.0385212203207,-0.0366267422484,-0.113867272542,-0.040270744913470206,-0.0015422224132141632,-1.3915915512531922
1765456151.782273,5.974340438842773,-0.258394752319,0.327346371507,-0.123365823822,-0.0774770140461,0.0360831283789,-0.0250502589938,-0.0143823312191,0.0175781471709,-0.0643550333531,-0.040270744913470206,-0.0015422224132141632,-1.3915915512531922
1765456151.8023143,5.994381666183472,-0.259776075883,0.328483167577,-0.123893242587,-0.0759733908406,0.0404635425852,-0.0234763927255,0.00531916317217,0.0618186803775,-0.0239197734351,-0.040270744913470206,-0.0015422224132141632,-1.3915915512531922
1765456151.8224938,6.014561176300049,-0.26116826288,0.329649807401,-0.12432367646,-0.0743986919652,0.0450115628061,-0.0214737622358,0.021432935996,0.0980028341042,0.00917222540597,-0.040270744913470206,-0.0015422224132141632,-1.3915915512531922
1765456151.844823,6.036890268325806,-0.262551555224,0.330855226401,-0.124660108644,-0.0727642980501,0.0496932264535,-0.0191203967799,0.0346111596622,0.127595088891,0.0362514907939,-0.040270744913470206,-0.0015422224132141632,-1.3915915512531922
1765456151.8632302,6.055297613143921,-0.263916775204,0.332108881094,-0.124909902581,-0.0710835941102,0.0544758846866,-0.0164966586273,0.0453840124089,0.151785982242,0.0583999806611,-0.040270744913470206,-0.0015422224132141632,-1.3915915512531922
1765456151.8861005,6.078167915344238,-0.265257463846,0.333418170213,-0.125081657538,-0.0693686016135,0.0593309375149,-0.0136747543867,0.0541867921519,0.171552993911,0.0765064490868,-0.040270744913470206,-0.0015422224132141632,-1.3915915512531922
1765456151.903426,6.095493316650391,-0.26657615488,0.33479551992,-0.125552556155,-0.0676231594744,0.0642540095655,-0.0115792785086,0.0613833107166,0.187713078634,0.0912449578889,-0.040270744913470206,-0.0015422224132141632,-1.3915915512531922
1765456151.924285,6.116352319717407,-0.26787944809,0.336257612512,-0.125913004187,-0.0658433575761,0.0692611227612,-0.00920767670832,0.0672749702838,0.200943047668,0.103326836247,-0.040270744913470206,-0.0015422224132141632,-1.3915915512531922
1765456151.9451041,6.137171506881714,-0.269156816624,0.337803489989,-0.126175626806,-0.06403993931,0.0743224328162,-0.00663289668965,0.0720977551019,0.211772813556,0.11322834506,-0.040270744913470206,-0.0015422224132141632,-1.3915915512531922
1765456151.9643087,6.156376123428345,-0.27056192699,0.338898335472,-0.126645684933,-0.0638826613993,0.0741941093566,-0.0102382506703,0.0578775694102,0.163515906578,0.0428213868443,-0.0221110530755726,6.418396621823408e-05,-1.4071703778398832
1765456151.9841323,6.176199674606323,-0.271942642093,0.340061535123,-0.127054542484,-0.0637758170862,0.0738947624593,-0.0139921435966,0.0462493207737,0.124054866833,-0.0147394999239,-0.0221110530755726,6.418396621823408e-05,-1.4071703778398832
1765456152.0053923,6.197459697723389,-0.273305021931,0.341277987363,-0.127422689563,-0.0637096267734,0.0734569601035,-0.0178516353916,0.0367365454653,0.0917727909792,-0.0618167067103,-0.0221110530755726,6.418396621823408e-05,-1.4071703778398832
1765456152.0247195,6.216786861419678,-0.274659649471,0.342541858499,-0.127766484457,-0.0636737844193,0.0729122491114,-0.0217865849171,0.0289463893575,0.0653365090075,-0.100357431272,-0.0221110530755726,6.418396621823408e-05,-1.4071703778398832
1765456152.0451503,6.237217664718628,-0.276024220666,0.343858574015,-0.129390102389,-0.0636586471146,0.0722858555914,-0.0288548343345,0.0225530917533,0.0436405358004,-0.132219668202,-0.0221110530755726,6.418396621823408e-05,-1.4071703778398832
1765456152.0657618,6.257829189300537,-0.277349684793,0.345160305994,-0.130811437371,-0.0636793070473,0.0715532755545,-0.0352943200791,0.0173327983227,0.0259252105623,-0.15817853868,-0.0221110530755726,6.418396621823408e-05,-1.4071703778398832
1765456152.0858183,6.277885675430298,-0.278681006383,0.346488141385,-0.132077120195,-0.0637153398562,0.0707617273115,-0.0412437652697,0.0130605151792,0.0114270053553,-0.179372297397,-0.0221110530755726,6.418396621823408e-05,-1.4071703778398832
1765456152.105936,6.298003435134888,-0.27999315274,0.347806063247,-0.133195231947,-0.0637699790462,0.0699140879413,-0.0466836377095,0.00957071372578,-0.000415809342006,-0.196639141001,-0.0221110530755726,6.418396621823408e-05,-1.4071703778398832
1765456152.1259084,6.317975759506226,-0.281301242056,0.349124421372,-0.134193296535,-0.0638368724315,0.0690248633504,-0.0516924408283,0.00671821373869,-0.0100959098354,-0.210712439448,-0.0221110530755726,6.418396621823408e-05,-1.4071703778398832
1765456152.1487148,6.340782165527344,-0.282676232088,0.350514369399,-0.135066870731,-0.0636606541847,0.0678234643706,-0.0547311170556,0.00705914796854,-0.0209026206635,-0.199182277958,-0.027062502042788796,0.006553851669022209,-1.4308984773622166
1765456152.1677222,6.359789609909058,-0.283953653543,0.351794303499,-0.135771543755,-0.0634932988398,0.0666019294871,-0.057034986488,0.00733635275325,-0.0296892771102,-0.189777440844,-0.027062502042788796,0.006553851669022209,-1.4308984773622166
1765456152.1878474,6.3799147605896,-0.285227820012,0.353062512137,-0.136946505412,-0.0633250623875,0.0653514985535,-0.0602838896452,0.0075622270714,-0.0368488939104,-0.182192786744,-0.027062502042788796,0.006553851669022209,-1.4308984773622166
1765456152.2080543,6.400121688842773,-0.286499224368,0.354316541358,-0.137967709714,-0.0631560337189,0.0640768753788,-0.0629638178008,0.00774655546108,-0.0426916149701,-0.175960320524,-0.027062502042788796,0.006553851669022209,-1.4308984773622166
1765456152.2281923,6.420259714126587,-0.287767485851,0.355553598246,-0.138853058324,-0.0629863790307,0.0627823606836,-0.0651526289963,0.00789712617466,-0.0474643072328,-0.170832243801,-0.027062502042788796,0.006553851669022209,-1.4308984773622166
1765456152.2485988,6.440666198730469,-0.289049135405,0.356787926451,-0.139632232496,-0.0628140994228,0.061458182028,-0.066952794855,0.00802044113908,-0.0513730645372,-0.166599638472,-0.027062502042788796,0.006553851669022209,-1.4308984773622166
1765456152.2686727,6.460740089416504,-0.290310963948,0.357985147506,-0.14028918437,-0.062643475704,0.060133096725,-0.0683469194372,0.00812117488211,-0.0545660570157,-0.163114780937,-0.027062502042788796,0.006553851669022209,-1.4308984773622166
1765456152.2887912,6.480858564376831,-0.291569671454,0.359160592139,-0.140853782784,-0.0624724815578,0.058796801858,-0.069432044764,0.00820351709399,-0.0571760867366,-0.160242750036,-0.027062502042788796,0.006553851669022209,-1.4308984773622166
1765456152.308789,6.500856399536133,-0.292825221998,0.360313153714,-0.141337147806,-0.0623011776498,0.0574512203705,-0.0702531710552,0.00827085527012,-0.0593105283191,-0.157874029514,-0.027062502042788796,0.006553851669022209,-1.4308984773622166
1765456152.3290405,6.521107912063599,-0.294077141638,0.36144152632,-0.144317507198,-0.0621296737511,0.0560983807905,-0.0769482062204,0.0083259364848,-0.061056456733,-0.156404579348,-0.027062502042788796,0.006553851669022209,-1.4308984773622166
1765456152.3485234,6.540590763092041,-0.295217811491,0.362812410968,-0.146610491265,-0.0608843133354,0.0573722789177,-0.0766117495962,0.0201688506701,-0.0335422722228,-0.0841639962573,-0.043979051089783436,0.021207436275924908,-1.4517896445333431
1765456152.3693714,6.561438798904419,-0.296349722805,0.364167264943,-0.148522322324,-0.0595970682916,0.0587450194858,-0.0749076834225,0.0298583704567,-0.0110309856381,-0.0249758332027,-0.043979051089783436,0.021207436275924908,-1.4517896445333431
1765456152.3894174,6.581484794616699,-0.297471018152,0.365517584097,-0.15009456515,-0.0582746508578,0.0601980945537,-0.0720819908987,0.0377881160885,0.00739188571093,0.0235310201735,-0.043979051089783436,0.021207436275924908,-1.4517896445333431
1765456152.4095755,6.601642847061157,-0.298576708832,0.366869371937,-0.15136240962,-0.0569241155454,0.0617173957349,-0.0683467925961,0.0442772848373,0.0224679205009,0.0632807693607,-0.043979051089783436,0.021207436275924908,-1.4517896445333431
1765456152.4297931,6.621860504150391,-0.299664320927,0.368229072456,-0.152361240682,-0.0555505984296,0.0632907222217,-0.0638877411125,0.0495875880425,0.0348051425654,0.0958527009383,-0.043979051089783436,0.021207436275924908,-1.4517896445333431
1765456152.4501565,6.642223834991455,-0.300758907372,0.369634323109,-0.153146986865,-0.0541320137297,0.0649289963883,-0.0587916485989,0.0539493462445,0.0449386467081,0.122641193479,-0.043979051089783436,0.021207436275924908,-1.4517896445333431
1765456152.475498,6.66756534576416,-0.301805153096,0.371026798537,-0.15369731847,-0.0527218841809,0.0665862905032,-0.0533196840956,0.0575123320481,0.0532163938295,0.144548035102,-0.043979051089783436,0.021207436275924908,-1.4517896445333431
1765456152.4905853,6.682652711868286,-0.302827846874,0.372439877987,-0.156089827645,-0.0512995990596,0.0682724769287,-0.0523418476361,0.0604245172648,0.0599821611168,0.162088704056,-0.043979051089783436,0.021207436275924908,-1.4517896445333431
1765456152.5117872,6.703854560852051,-0.303826063095,0.373876726001,-0.158044955162,-0.049867145761,0.0699825167129,-0.0502564179948,0.0628058243608,0.0655145597974,0.176513627523,-0.043979051089783436,0.021207436275924908,-1.4517896445333431
1765456152.530752,6.7228193283081055,-0.304799200081,0.375340203719,-0.159622161614,-0.0484258829139,0.0717126208356,-0.0472758069235,0.0647537272564,0.0700400472612,0.188379094627,-0.043979051089783436,0.021207436275924908,-1.4517896445333431
1765456152.5527244,6.744791746139526,-0.305883524638,0.376832509082,-0.16098712701,-0.0477934166817,0.0727967209129,-0.0449811220945,0.056643349137,0.0656684514424,0.178181785004,-0.02336948823679751,0.009622974736729848,-1.4794572250981763
1765456152.5730865,6.765153884887695,-0.30690240767,0.37829016379,-0.162031125296,-0.0472463109044,0.0738045015334,-0.0423547282173,0.0500266470954,0.0621019658172,0.16990565498,-0.02336948823679751,0.009622974736729848,-1.4794572250981763
1765456152.5927315,6.784798860549927,-0.307900209282,0.379773192216,-0.16283857392,-0.0467235159455,0.0747990191481,-0.0393501594727,0.0446243319789,0.059190050019,0.163181695641,-0.02336948823679751,0.009622974736729848,-1.4794572250981763
1765456152.6146328,6.806700229644775,-2.88857296473,3.56562650981,-0.163490178364,-0.432339367548,0.552387632857,-0.0362035240845,0.0401741890289,0.0568655868006,0.157710650906,-0.02336948823679751,0.009622974736729848,-1.4794572250981763
1765456152.635836,6.8279032707214355,-2.89694823851,3.57630797164,-0.166689399367,-0.431786880704,0.553285372004,-0.0392475543818,0.0365762639986,0.0549127259002,0.152741937356,-0.02336948823679751,0.009622974736729848,-1.4794572250981763
1765456152.6533527,6.8454201221466064,-2.90538690945,3.58710569661,-0.169353784758,-0.431275536816,0.554194788153,-0.0409469413084,0.0336371291622,0.0533174440257,0.148793752368,-0.02336948823679751,0.009622974736729848,-1.4794572250981763
1765456152.6736066,6.865674018859863,-2.91391785839,3.59805634315,-0.171564255437,-0.430789513316,0.555118086449,-0.0415115816082,0.0312345380988,0.0520133860121,0.145657879122,-0.02336948823679751,0.009622974736729848,-1.4794572250981763
1765456152.6935759,6.885643243789673,-2.92248869878,3.6090922905,-0.173383127219,-0.430323565079,0.556047636131,-0.0411497989683,0.0292703923912,0.0509473050595,0.143169515814,-0.02336948823679751,0.009622974736729848,-1.4794572250981763
1765456152.7136073,6.905674695968628,-2.93109379964,3.62020596291,-0.174867739082,-0.429871442937,0.55698198106,-0.0400284285073,0.0276640426813,0.0500754260725,0.141195727339,-0.02336948823679751,0.009622974736729848,-1.4794572250981763
1765456152.7338777,6.925945043563843,-2.93971716438,3.6313763873,-0.176066199687,-0.429429524002,0.557918715604,-0.0382947287985,0.0263499729225,0.0493621883542,0.139630470559,-0.02336948823679751,0.009622974736729848,-1.4794572250981763
1765456152.7528458,6.944913148880005,-2.94834115428,3.64240086704,-0.177178716373,-0.428325172066,0.556241463055,-0.0394555045806,0.0326993749183,0.0199218278687,0.0962049787348,0.014983993952762314,-0.023622116113921347,-1.5072486426536984
1765456152.7741327,6.966200113296509,-2.95692555035,3.65340276199,-0.178823609832,-0.427190836928,0.554450483498,-0.0421106559735,0.0378969582695,-0.00417787859073,0.0605537051246,0.014983993952762314,-0.023622116113921347,-1.5072486426536984
1765456152.7941198,6.986187219619751,-2.96547990355,3.6643839571,-0.180196962703,-0.426041698171,0.552574259293,-0.0442427783863,0.0421490728468,-0.0238937170618,0.0314422562918,0.014983993952762314,-0.023622116113921347,-1.5072486426536984
1765456152.8153546,7.007421970367432,-2.97402446066,3.67536514764,-0.181344357297,-0.424878256645,0.550628493245,-0.0459301626801,0.0456282584404,-0.0400257050698,0.00766819667876,0.014983993952762314,-0.023622116113921347,-1.5072486426536984
1765456152.8343997,7.0264670848846436,-2.98255718566,3.68633906025,-0.182302067269,-0.423702420047,0.548624887444,-0.0472441178515,0.048475454875,-0.0532273402026,-0.0117492374385,0.014983993952762314,-0.023622116113921347,-1.5072486426536984
1765456152.8547752,7.046842575073242,-2.99120130309,3.69746129562,-0.183111649796,-0.42250107308,0.546555133559,-0.0482446767178,0.0508108248887,-0.0640557826746,-0.0276436865562,0.014983993952762314,-0.023622116113921347,-1.5072486426536984
1765456152.8753524,7.067419767379761,-2.99976671165,3.7084825629,-0.18377887299,-0.421297301463,0.544451068779,-0.0489819463819,0.052722118651,-0.0729179049081,-0.04062511437,0.014983993952762314,-0.023622116113921347,-1.5072486426536984
1765456152.8959255,7.087992906570435,-3.0083005963,3.71946137837,-0.184330825717,-0.420087169397,0.542314627154,-0.049500538638,0.0542856886642,-0.0801677316093,-0.0512226507221,0.014983993952762314,-0.023622116113921347,-1.5072486426536984
1765456152.9156752,7.107742547988892,-3.01670348466,3.73026945944,-0.187904104995,-0.418874382751,0.540157520777,-0.0572521249896,0.0555631393489,-0.0860909047518,-0.0604528737078,0.014983993952762314,-0.023622116113921347,-1.5072486426536984
1765456152.9363518,7.1284191608428955,-3.02509637138,3.74105827157,-0.190957110956,-0.4176591339,0.53798207158,-0.0634589810761,0.0566074372662,-0.0909330152963,-0.0678725244941,0.014983993952762314,-0.023622116113921347,-1.5072486426536984
1765456152.9562464,7.148313760757446,-3.03348883594,3.75196892138,-0.193594177126,-0.415824327546,0.536279944852,-0.0688510496339,0.0641357672776,-0.0893355714996,-0.0799378164449,0.015139868979424112,-0.06918074838347422,-1.5366211789484003
1765456152.9761028,7.168170213699341,-3.04178228022,3.76274849115,-0.195829646333,-0.413974223108,0.534601172846,-0.0731275740822,0.0702894938995,-0.0880298061532,-0.0897082414306,0.015139868979424112,-0.06918074838347422,-1.5366211789484003
1765456152.9965317,7.188599109649658,-3.05010852032,3.77357104608,-0.197738421744,-0.412092118465,0.532914917484,-0.0764765792265,0.075327174278,-0.0869608557632,-0.097628442,0.015139868979424112,-0.06918074838347422,-1.5366211789484003
1765456153.0164273,7.208494663238525,-3.05835036675,3.78428839559,-0.199347478442,-0.410201520659,0.531244175316,-0.0790178608199,0.0794460574239,-0.086086865868,-0.104038091674,0.015139868979424112,-0.06918074838347422,-1.5366211789484003
1765456153.036704,7.228771448135376,-3.06655868873,3.79496886613,-0.200706377547,-0.408296435018,0.52957672736,-0.0808863405366,0.0828148281468,-0.0853720430711,-0.109224772075,0.015139868979424112,-0.06918074838347422,-1.5366211789484003
1765456153.0567262,7.248793601989746,-3.07474049852,3.80562345837,-0.20405146387,-0.406378960741,0.527911579262,-0.0874165896079,0.0855709617722,-0.084787216346,-0.113836473646,0.015139868979424112,-0.06918074838347422,-1.5366211789484003
1765456153.0783553,7.270422697067261,-3.08289296764,3.81625047436,-0.206903112314,-0.40445034476,0.526247338191,-0.0924921341262,0.0878263841881,-0.0843086360288,-0.117493078163,0.015139868979424112,-0.06918074838347422,-1.5366211789484003
1765456153.0971382,7.289205551147461,-3.09099936915,3.82682962771,-0.209323540541,-0.402515474011,0.524586603276,-0.0963275618089,0.0896717975338,-0.0839170559428,-0.120385420962,0.015139868979424112,-0.06918074838347422,-1.5366211789484003
1765456153.1172621,7.309329509735107,-3.09906906903,3.83737427813,-0.211372154249,-0.400573507982,0.522926796448,-0.0991154647804,0.091181939728,-0.0835966173749,-0.122668099064,0.015139868979424112,-0.06918074838347422,-1.5366211789484003
1765456153.1373284,7.329395771026611,-3.10709929481,3.84788177022,-0.213098329341,-0.398626075594,0.521268063137,-0.101019637693,0.0924177825917,-0.0833343826538,-0.12446525042,0.015139868979424112,-0.06918074838347422,-1.5366211789484003
1765456153.1613064,7.353373765945435,-3.11585198727,3.85943111038,-0.214798266369,-0.396440976112,0.52017170703,-0.104390773611,0.0940255644433,-0.0751602830688,-0.151701863026,0.003921617317324491,-0.13898621610203218,-1.5645160603122716
1765456153.1799848,7.372052192687988,-3.12379057819,3.86993436247,-0.216068378963,-0.394430105318,0.519263353209,-0.106991356987,0.0953310884463,-0.0685228880759,-0.173766743845,0.003921617317324491,-0.13898621610203218,-1.5645160603122716
1765456153.2015111,7.39357852935791,-3.13174450307,3.88047799276,-0.223060930052,-0.392412776238,0.518377491905,-0.123182070274,0.0963944859603,-0.0631164847247,-0.192817061187,0.003921617317324491,-0.13898621610203218,-1.5645160603122716
1765456153.220803,7.412870407104492,-3.13969494795,3.89104353198,-0.229055638416,-0.390380434887,0.517502496973,-0.136343179238,0.0972626618495,-0.0587026047101,-0.208120310695,0.003921617317324491,-0.13898621610203218,-1.5645160603122716
1765456153.240668,7.432735443115234,-3.1475410442,3.90149967815,-0.234157517082,-0.388358918627,0.516650905183,-0.146873329794,0.0979710792705,-0.0551009503296,-0.220395074459,0.003921617317324491,-0.13898621610203218,-1.5645160603122716
1765456153.2641602,7.456227540969849,-3.15599176227,3.91279404988,-0.238732057734,-0.386168905455,0.515721391587,-0.155502173372,0.0985568468611,-0.0521228581124,-0.230356490823,0.003921617317324491,-0.13898621610203218,-1.5645160603122716
1765456153.281915,7.473982334136963,-3.16373994078,3.92318572423,-0.242397452512,-0.384142649309,0.514893806612,-0.16186120175,0.0990323293429,-0.0497054647623,-0.238286986157,0.003921617317324491,-0.13898621610203218,-1.5645160603122716
1765456153.3020475,7.494114875793457,-3.17145107497,3.93356151573,-0.245501610538,-0.382112733879,0.514072489232,-0.166633862599,0.0994194018477,-0.0477375552503,-0.24461295652,0.003921617317324491,-0.13898621610203218,-1.5645160603122716
1765456153.3243604,7.516427755355835,-3.17916887124,3.94398153828,-0.248139567146,-0.380068135424,0.513251030439,-0.170092775261,0.0997353649578,-0.0461311719447,-0.249666888178,0.003921617317324491,-0.13898621610203218,-1.5645160603122716
1765456153.346759,7.5388264656066895,-3.18683579515,3.95436671188,-0.254955299853,-0.378032896602,0.512442019109,-0.183339557801,0.0999933036626,-0.0448197896458,-0.254575160079,0.003921617317324491,-0.13898621610203218,-1.5645160603122716
1765456153.3662732,7.558340549468994,-3.19587000204,3.9654610904,-0.261248585628,-0.382677785938,0.509197285048,-0.19753221896,0.0249526629472,-0.0695168398594,-0.30240506771,0.01646253521689307,-0.20319353195572945,-1.5956389592334284
1765456153.3860338,7.57810115814209,-3.20413923178,3.97551805325,-0.26629178384,-0.387743422556,0.505965527717,-0.208759825352,-0.0358900979496,-0.0895411454448,-0.34097165615,0.01646253521689307,-0.20319353195572945,-1.5956389592334284
1765456153.4049053,7.596972703933716,-3.21241244598,3.98553421675,-0.270582308457,-0.39299682578,0.502671329272,-0.21791080643,-0.0853737971515,-0.105827005911,-0.372159029681,0.01646253521689307,-0.20319353195572945,-1.5956389592334284
1765456153.4259374,7.61800479888916,-3.22071989406,3.99551336501,-0.27423586889,-0.398409113345,0.499322869609,-0.225310580351,-0.125708237227,-0.119101701894,-0.397428981199,0.01646253521689307,-0.20319353195572945,-1.5956389592334284
1765456153.446414,7.638481378555298,-3.22907290969,4.00544190103,-0.27734168686,-0.40395329488,0.495930543903,-0.231219989238,-0.158628664054,-0.129936329992,-0.417926280439,0.01646253521689307,-0.20319353195572945,-1.5956389592334284
1765456153.4695811,7.661648511886597,-3.2384229005,4.01644282185,-0.280391056056,-0.410011302368,0.492190741116,-0.236522015424,-0.185972721057,-0.138935687439,-0.434815290497,0.01646253521689307,-0.20319353195572945,-1.5956389592334284
1765456153.4914293,7.683496713638306,-3.24691485813,4.02624730491,-0.282524544937,-0.415784286019,0.488723199193,-0.239852976674,-0.208116963812,-0.146223704573,-0.448405872137,0.01646253521689307,-0.20319353195572945,-1.5956389592334284
1765456153.5095687,7.701636075973511,-3.25552060569,4.03603129749,-0.290824903634,-0.42163268063,0.485233165272,-0.25771971506,-0.226116306057,-0.152147570028,-0.460616969517,0.01646253521689307,-0.20319353195572945,-1.5956389592334284
1765456153.5295916,7.721658945083618,-3.2642029574,4.0457377465,-0.297899062059,-0.427532597431,0.481726556362,-0.271908697877,-0.240777191334,-0.156972697004,-0.470264917879,0.01646253521689307,-0.20319353195572945,-1.5956389592334284
1765456153.5476713,7.739738702774048,-3.2728690643,4.05550731701,-0.303669183719,-0.432394271991,0.479476367591,-0.277536198065,-0.240888441627,-0.147014537114,-0.410335235587,0.011003502310069982,-0.14128728715240152,-1.6279092811102454
1765456153.571442,7.763509273529053,-3.28222350113,4.0658600155,-0.308831978084,-0.437583072306,0.477066093129,-0.280671239785,-0.240980201005,-0.138801034733,-0.360682360144,0.011003502310069982,-0.14128728715240152,-1.6279092811102454
1765456153.5928144,7.784881830215454,-3.29112147977,4.07553971428,-0.312841220564,-0.442464074781,0.474869561161,-0.280945718398,-0.241054823603,-0.132121468001,-0.320130906772,0.011003502310069982,-0.14128728715240152,-1.6279092811102454
1765456153.612427,7.804494380950928,-3.30009238833,4.08513736246,-0.316144132795,-0.447332168797,0.472701517677,-0.27929023287,-0.241115605213,-0.126680826231,-0.286960856117,0.011003502310069982,-0.14128728715240152,-1.6279092811102454
1765456153.6314967,7.823564052581787,-3.30916479246,4.09468629437,-0.318848494564,-0.452202728175,0.470549822571,-0.276075538014,-0.241165192411,-0.122242210981,-0.259785789524,0.011003502310069982,-0.14128728715240152,-1.6279092811102454
1765456153.6502147,7.842282056808472,-3.31837338028,4.10422527566,-0.324178934216,-0.457090997262,0.468405660566,-0.27903676247,-0.241205707288,-0.118615671175,-0.238085091221,0.011003502310069982,-0.14128728715240152,-1.6279092811102454
1765456153.6711156,7.86318302154541,-3.32767522,4.11370916911,-0.328608211048,-0.461977243782,0.466274751711,-0.279577067923,-0.241238820212,-0.115651689827,-0.220163112757,0.011003502310069982,-0.14128728715240152,-1.6279092811102454
1765456153.6963491,7.888416528701782,-3.33704431798,4.12311369005,-0.332245134548,-0.466847831857,0.46416139846,-0.278121041807,-0.241265878317,-0.113229683313,-0.205366187917,0.011003502310069982,-0.14128728715240152,-1.6279092811102454
1765456153.7141426,7.906209945678711,-3.34649820206,4.13245848198,-0.335207736264,-0.471712002621,0.462059226392,-0.275047956624,-0.241287994436,-0.11125004045,-0.19314847687,0.011003502310069982,-0.14128728715240152,-1.6279092811102454
1765456153.7327201,7.924787521362305,-3.35603833497,4.1417464261,-0.337590776095,-0.476570533814,0.459966377762,-0.270675118572,-0.241306075492,-0.109631581378,-0.18306107761,0.011003502310069982,-0.14128728715240152,-1.6279092811102454
1765456153.7513125,7.943379878997803,-3.36465311415,4.15116820664,-0.339008389287,-0.470981773232,0.459251980953,-0.254766050506,-0.126520297926,-0.0931554091887,-0.0441044085914,-0.03932647121471217,-0.017310109120351407,-1.6535643108393057
1765456153.77271,7.96477746963501,-3.37359888081,4.16081964167,-0.340081266725,-0.465016798358,0.458547531832,-0.237507215356,-0.0321887836957,-0.0796152101828,0.0701473178098,-0.03932647121471217,-0.017310109120351407,-1.6535643108393057
1765456153.79126,7.983327388763428,-3.38224190928,4.1701234102,-0.342257218341,-0.458649952802,0.457952995744,-0.223340088749,0.0447534053778,-0.0685710478951,0.16304945491,-0.03932647121471217,-0.017310109120351407,-1.6535643108393057
1765456153.817296,8.009363412857056,-3.39091067259,4.17943738178,-0.343873876535,-0.452015173432,0.457390406695,-0.207853723467,0.107625242224,-0.0595465221074,0.239034636877,-0.03932647121471217,-0.017310109120351407,-1.6535643108393057
1765456153.8339968,8.026064157485962,-3.39951572959,4.18870267824,-0.344976893802,-0.445165015419,0.456862578014,-0.191423446209,0.159002709738,-0.0521718802369,0.301177482082,-0.03932647121471217,-0.017310109120351407,-1.6535643108393057
1765456153.8547869,8.046854257583618,-3.40807449383,4.19796219847,-0.345648921003,-0.438128833322,0.456358834337,-0.174318056989,0.20101913618,-0.0461409076592,0.352028887738,-0.03932647121471217,-0.017310109120351407,-1.6535643108393057
1765456153.878222,8.070289373397827,-3.41817632104,4.20891822396,-0.346360372976,-0.430099841191,0.455715236206,-0.154906261021,0.236333881935,-0.0410718839159,0.394823233454,-0.03932647121471217,-0.017310109120351407,-1.6535643108393057
1765456153.8977594,8.089826822280884,-3.42660425498,4.21820951739,-0.346174675076,-0.422688401115,0.455253814737,-0.136734711089,0.264821736947,-0.0369827814642,0.429333347154,-0.03932647121471217,-0.017310109120351407,-1.6535643108393057
1765456153.9194455,8.111512899398804,-3.43487212248,4.22742692132,-0.345745446584,-0.415223316991,0.454809796503,-0.118739809953,0.287884448056,-0.0336723957402,0.457251105668,-0.03932647121471217,-0.017310109120351407,-1.6535643108393057
1765456153.9386246,8.13069200515747,-3.4430043436,4.23660792448,-0.346793107947,-0.407704100179,0.454377888091,-0.104969056875,0.306613433568,-0.0309840662558,0.479576874363,-0.03932647121471217,-0.017310109120351407,-1.6535643108393057
1765456153.9588108,8.150878190994263,-3.4509710106,4.24588709321,-0.347435133896,-0.399483732529,0.454809582281,-0.090552328078,0.328699462677,-0.0194543229823,0.500064838531,-0.05722380423453415,0.005421212378303411,-1.6775633870025548
1765456153.9828172,8.174884557723999,-3.4592335108,4.25565574238,-0.347795887643,-0.390818663037,0.45526426225,-0.0752634833168,0.346859401547,-0.00997414743747,0.516929426374,-0.05722380423453415,0.005421212378303411,-1.6775633870025548
1765456154.000388,8.192455291748047,-3.46689662258,4.26489485116,-0.347778762048,-0.382478216343,0.455769858474,-0.0604995158401,0.361615710011,-0.00227079581105,0.530632092662,-0.05722380423453415,0.005421212378303411,-1.6775633870025548
1765456154.0205944,8.212661743164062,-3.47451016303,4.27424916104,-0.347540614217,-0.373997398475,0.456299879037,-0.045662219309,0.373657264846,0.00401535165254,0.54180433061,-0.05722380423453415,0.005421212378303411,-1.6775633870025548
1765456154.0405922,8.232659578323364,-3.48187612476,4.28348895727,-0.347099967222,-0.365570548533,0.456850260641,-0.0311464014489,0.383470701563,0.00913833711185,0.550890701237,-0.05722380423453415,0.005421212378303411,-1.6775633870025548
1765456154.060881,8.25294828414917,-3.48909214075,4.29273830205,-0.346506463942,-0.357106846528,0.457417355486,-0.0168943421924,0.391480259997,0.0133196298206,0.558282084045,-0.05722380423453415,0.005421212378303411,-1.6775633870025548
1765456154.0858073,8.27787470817566,-3.49615691665,4.30200202399,-0.351680275426,-0.348612342093,0.457998983738,-0.0169492723017,0.398023843672,0.0167356282099,0.56317275338,-0.05722380423453415,0.005421212378303411,-1.6775633870025548
1765456154.1012933,8.293360710144043,-3.50305333786,4.31126312271,-0.355921776559,-0.340102942072,0.458591756623,-0.0147717992667,0.403371942719,0.0195275383675,0.567347925123,-0.05722380423453415,0.005421212378303411,-1.6775633870025548
1765456154.1211808,8.31324815750122,-3.50978228378,4.32052644879,-0.359363988333,-0.331579586739,0.459193760142,-0.0107830261763,0.407744533609,0.0218101963391,0.570905609578,-0.05722380423453415,0.005421212378303411,-1.6775633870025548
1765456154.14095,8.333017349243164,-3.51634036841,4.32979035957,-0.36212181647,-0.323047983616,0.459803180045,-0.00534839491419,0.411320314914,0.0236768895433,0.573930189356,-0.05722380423453415,0.005421212378303411,-1.6775633870025548
1765456154.1625285,8.35459589958191,-3.52364758557,4.33906108613,-0.364772445039,-0.322869448745,0.459564244194,-0.00887637351428,0.321661718369,0.0157817825403,0.449596480789,-0.006566506885686589,-0.08840096090171183,-1.7008109191061835
1765456154.1846542,8.376721620559692,-3.53076927574,4.34826857765,-0.3669407363,-0.323067691077,0.459294012655,-0.0119989520205,0.248342852637,0.00932551049722,0.348004885194,-0.006566506885686589,-0.08840096090171183,-1.7008109191061835
1765456154.2019958,8.394063234329224,-3.53777979598,4.35747177423,-0.368718101398,-0.323528608023,0.459000858958,-0.0147243050179,0.188379215768,0.00404526579547,0.264986425273,-0.006566506885686589,-0.08840096090171183,-1.7008109191061835
1765456154.222664,8.414731502532959,-3.54480308731,4.36680814718,-0.373861354127,-0.324157228173,0.45868955171,-0.0257936155991,0.139224073157,-0.000283210509225,0.196291366466,-0.006566506885686589,-0.08840096090171183,-1.7008109191061835
1765456154.242799,8.434866428375244,-3.55167767016,4.37601817822,-0.378222190348,-0.325009941381,0.458361900965,-0.0350083896271,0.0990504656687,-0.00382079577199,0.14032597635,-0.006566506885686589,-0.08840096090171183,-1.7008109191061835
1765456154.262696,8.454763412475586,-3.55851112299,4.38522882656,-0.38192162245,-0.326004104511,0.458021688982,-0.0425815903612,0.0662012412761,-0.0067134145675,0.094714499728,-0.006566506885686589,-0.08840096090171183,-1.7008109191061835
1765456154.2823884,8.474455833435059,-3.56531362863,4.39443370503,-0.385057380888,-0.327115464098,0.45767120496,-0.0487580487908,0.0393347169748,-0.00907921207417,0.0575373663075,-0.006566506885686589,-0.08840096090171183,-1.7008109191061835
1765456154.3027415,8.494808912277222,-3.57211074107,4.40365172978,-0.387714803306,-0.328321736663,0.457311874645,-0.0537444268411,0.0173505683396,-0.0110150800504,0.0272240296671,-0.006566506885686589,-0.08840096090171183,-1.7008109191061835
1765456154.3229396,8.515007019042969,-3.57889416179,4.4128575835,-0.389961472102,-0.329607940964,0.456945696179,-0.0577217772187,-0.000636141011521,-0.0125989437336,0.0025137644379,-0.006566506885686589,-0.08840096090171183,-1.7008109191061835
1765456154.3462155,8.538282871246338,-3.58573281917,4.42213545874,-0.391867134459,-0.330960957417,0.456571499965,-0.0608419421704,-0.0153715460374,-0.0138965058626,-0.017652653637,-0.006566506885686589,-0.08840096090171183,-1.7008109191061835
1765456154.3646576,8.556725025177002,-3.59266780363,4.43105257254,-0.396337157411,-0.333919236258,0.453592857513,-0.0723848478563,-0.0444957777942,-0.0435726171799,-0.0670457465994,0.03359276861155564,-0.15434969282507668,-1.723669496532606
1765456154.3835366,8.57560396194458,-3.59962391445,4.43995966815,-0.400169935674,-0.336981951408,0.450507779658,-0.0821886793407,-0.0683163801881,-0.0678445998434,-0.107288478814,0.03359276861155564,-0.15434969282507668,-1.723669496532606
1765456154.4041111,8.596178531646729,-3.60662028189,4.44885835185,-0.403459237274,-0.340133515043,0.44733220695,-0.0904974895237,-0.0878089667328,-0.0877065544177,-0.140085943385,0.03359276861155564,-0.15434969282507668,-1.723669496532606
1765456154.4238544,8.61592173576355,-3.61366945159,4.45774518832,-0.406283563647,-0.343361507306,0.444078823528,-0.0975202258977,-0.103765590705,-0.103965542919,-0.166819256896,0.03359276861155564,-0.15434969282507668,-1.723669496532606
1765456154.443661,8.635728359222412,-3.6207215123,4.46654028839,-0.408694215385,-0.346636351214,0.440777482438,-0.103411097054,-0.116813834125,-0.117261039517,-0.188581885384,0.03359276861155564,-0.15434969282507668,-1.723669496532606
1765456154.464408,8.656475305557251,-3.62782380671,4.47529293664,-0.4107593809,-0.349959061031,0.437427372192,-0.10834368115,-0.127487841457,-0.12813731026,-0.20630069409,0.03359276861155564,-0.15434969282507668,-1.723669496532606
1765456154.4857981,8.677865505218506,-3.63498949284,4.48400907017,-0.412529759499,-0.353324787859,0.434033480484,-0.112456341806,-0.13622325892,-0.137038256497,-0.220729469992,0.03359276861155564,-0.15434969282507668,-1.723669496532606
1765456154.507779,8.699846267700195,-3.64227655442,4.49274985682,-0.414060039796,-0.356748660443,0.430580662275,-0.115889144342,-0.143381731526,-0.144332376105,-0.232490895964,0.03359276861155564,-0.15434969282507668,-1.723669496532606
1765456154.5261953,8.718262672424316,-3.64954540891,4.50133904482,-0.419385705857,-0.360168690959,0.42713147524,-0.128263930827,-0.149234041329,-0.150295582229,-0.242816356529,0.03359276861155564,-0.15434969282507668,-1.723669496532606
1765456154.5486298,8.740697145462036,-3.65687642588,4.50986971817,-0.423954282712,-0.363610525571,0.423660051755,-0.138316597415,-0.154020424432,-0.155172663243,-0.251072982968,0.03359276861155564,-0.15434969282507668,-1.723669496532606
1765456154.56474,8.756807327270508,-3.66417512638,4.51850728382,-0.42791462417,-0.366224876569,0.421965062661,-0.147522311229,-0.148686842672,-0.139469571206,-0.271970321252,0.011522883221068083,-0.15654105828329157,-1.7433718285931212
1765456154.5864398,8.778507232666016,-3.67154379519,4.52709851031,-0.431309135462,-0.368823927978,0.42032284091,-0.155080781083,-0.144322663271,-0.126620586435,-0.288930754998,0.011522883221068083,-0.15654105828329157,-1.7433718285931212
1765456154.6133795,8.805446863174438,-3.67898048332,4.53564822865,-0.434214494972,-0.371410708629,0.418724192438,-0.161226869128,-0.140750807417,-0.116104354803,-0.302693225312,0.011522883221068083,-0.15654105828329157,-1.7433718285931212
1765456154.6266205,8.818687915802002,-3.68646358345,4.54413802832,-0.436689617522,-0.373980327375,0.417167308852,-0.16615157489,-0.137828233504,-0.107499734266,-0.313852817547,0.011522883221068083,-0.15654105828329157,-1.7433718285931212
1765456154.647609,8.83967638015747,-3.69401482667,4.55259719985,-0.438801026592,-0.376543733094,0.415638307876,-0.170048347933,-0.135436158933,-0.100457005975,-0.322900351424,0.011522883221068083,-0.15654105828329157,-1.7433718285931212
1765456154.665718,8.85778546333313,-3.70160581907,4.56099833406,-0.442238602286,-0.379092858992,0.414139154463,-0.176973413736,-0.133479032788,-0.0946948496285,-0.330540915689,0.011522883221068083,-0.15654105828329157,-1.7433718285931212
1765456154.6876144,8.879681825637817,-3.70926289331,4.56937368428,-0.445175009896,-0.381639036078,0.412657984021,-0.182424562204,-0.131877215954,-0.0899787923339,-0.336673834833,0.011522883221068083,-0.15654105828329157,-1.7433718285931212
1765456154.7074924,8.899559736251831,-3.71702566346,4.57776791324,-0.447691649837,-0.384197078359,0.411182264561,-0.186643865079,-0.130564960408,-0.0861152592446,-0.341594370319,0.011522883221068083,-0.15654105828329157,-1.7433718285931212
1765456154.7268012,8.91886854171753,-3.72478573375,4.5860666682,-0.449801632467,-0.386731092297,0.409733686174,-0.18974470762,-0.129491706945,-0.0829553943218,-0.345532057087,0.011522883221068083,-0.15654105828329157,-1.7433718285931212
1765456154.749443,8.941510438919067,-3.73384240935,4.596046486,-0.452017286121,-0.388595374849,0.410906787663,-0.191251323093,-0.116320387149,-0.0484613819779,-0.330383087654,-0.021994131981339714,-0.11574196301549566,-1.7622341996458255
1765456154.771978,8.964045286178589,-3.74159075402,4.60456586448,-0.453313018863,-0.389967378966,0.412470689542,-0.190844564867,-0.105695953108,-0.0206373396907,-0.318111345415,-0.021994131981339714,-0.11574196301549566,-1.7622341996458255
1765456154.789845,8.98191237449646,-3.74938307363,4.61307423556,-0.454387399789,-0.391307542169,0.414118039397,-0.189857962486,-0.0970844735503,0.00191503066947,-0.30812136804,-0.021994131981339714,-0.11574196301549566,-1.7622341996458255
1765456154.8114166,9.003484010696411,-3.75727795037,4.62164767419,-0.45955551562,-0.392635733493,0.415837477746,-0.198531140191,-0.0900739330542,0.0202747451222,-0.300762732067,-0.021994131981339714,-0.11574196301549566,-1.7622341996458255
1765456154.8314865,9.023553848266602,-3.76522351543,4.63024242996,-0.463939431912,-0.39394302235,0.417620254541,-0.204874717145,-0.0843566441982,0.035247597914,-0.294576623248,-0.021994131981339714,-0.11574196301549566,-1.7622341996458255
1765456154.8510194,9.043086767196655,-3.77313330922,4.63877581637,-0.467609089118,-0.395215805815,0.419447458201,-0.209216165015,-0.0796960660475,0.0474530596865,-0.289379914745,-0.021994131981339714,-0.11574196301549566,-1.7622341996458255
1765456154.873101,9.065168380737305,-3.7810851964,4.64733766017,-0.470697044243,-0.396475130839,0.421316008285,-0.211932034581,-0.075891239298,0.0574174173137,-0.285008502533,-0.021994131981339714,-0.11574196301549566,-1.7622341996458255
1765456154.894508,9.086575269699097,-3.78906959842,4.6559237508,-0.473278654766,-0.397721873753,0.423218420699,-0.213287027788,-0.0727825266057,0.0655587407077,-0.281329480044,-0.021994131981339714,-0.11574196301549566,-1.7622341996458255
1765456154.9111,9.103167295455933,-3.79706524235,4.66451627223,-0.475414517912,-0.398954650431,0.425145496296,-0.213505470987,-0.0702421480635,0.0722116692034,-0.27823467286,-0.021994131981339714,-0.11574196301549566,-1.7622341996458255
1765456154.932962,9.12502932548523,-3.80510160925,4.67315055495,-0.477178985305,-0.4001808559,0.427097535858,-0.212803087817,-0.068164639054,0.0776524012279,-0.275630820283,-0.021994131981339714,-0.11574196301549566,-1.7622341996458255
1765456154.9518294,9.14389681816101,-3.81306381051,4.68167989357,-0.478455837692,-0.400425141081,0.427758700214,-0.20788447602,-0.0557834991612,0.0677463534638,-0.230481593728,-0.016802359773473687,-0.056813823068284065,-1.7845541527417796
1765456154.9727838,9.164851188659668,-3.82105087102,4.69023892971,-0.484769324335,-0.400626162523,0.428385336571,-0.214857400351,-0.0456543502755,0.0596421051038,-0.194507875671,-0.016802359773473687,-0.056813823068284065,-1.7845541527417796
1765456154.9933684,9.185435771942139,-3.82906014949,4.69882597159,-0.49008496427,-0.400791636392,0.428983712405,-0.218886667892,-0.0373661832301,0.0530108111084,-0.164850384002,-0.016802359773473687,-0.056813823068284065,-1.7845541527417796
1765456155.0137544,9.205821752548218,-3.83708282602,4.70743252371,-0.494527867338,-0.400927322418,0.429558127709,-0.220455113333,-0.0305843870712,0.0475847520171,-0.140397793429,-0.016802359773473687,-0.056813823068284065,-1.7845541527417796
1765456155.0333822,9.225449562072754,-3.8451197891,4.71606030708,-0.498213112899,-0.401038825244,0.430113281863,-0.219984272863,-0.0250347433325,0.0431445279,-0.12023432192,-0.016802359773473687,-0.056813823068284065,-1.7845541527417796
1765456155.0541117,9.246179103851318,-3.8531593456,4.72469740962,-0.501236689918,-0.401129917507,0.430651653426,-0.217837388706,-0.0204939597996,0.0395114845007,-0.103610522566,-0.016802359773473687,-0.056813823068284065,-1.7845541527417796
1765456155.0729494,9.265016794204712,-3.86120676545,4.7333499917,-0.503691149264,-0.401204700754,0.431176937461,-0.21433076396,-0.0167783420584,0.0365386494358,-0.0899056353589,-0.016802359773473687,-0.056813823068284065,-1.7845541527417796
1765456155.0934608,9.285528182983398,-3.8692738917,4.74203122049,-0.505659934258,-0.401266592741,0.431692640113,-0.209732695964,-0.0137370193899,0.034105312289,-0.0786059393412,-0.016802359773473687,-0.056813823068284065,-1.7845541527417796
1765456155.113927,9.305994272232056,-3.87736850873,4.75074988092,-0.512350908786,-0.401318046871,0.432201244778,-0.216474825596,-0.0112468378159,0.0321129385798,-0.0702587841166,-0.016802359773473687,-0.056813823068284065,-1.7845541527417796
1765456155.1338964,9.325963735580444,-3.8855228318,4.7595410553,-0.517983893238,-0.40136157954,0.432706679705,-0.220260738536,-0.00920642653476,0.0304804223669,-0.0631863806068,-0.016802359773473687,-0.056813823068284065,-1.7845541527417796
1765456155.1533153,9.345382690429688,-3.89354009065,4.76811587899,-0.522553187554,-0.400638244415,0.431622533186,-0.219651456742,0.000796233347604,0.0117815599087,-0.0332525553283,0.0007559412662737316,-0.01813443550002849,-1.8077433616175356
1765456155.1739714,9.366038799285889,-3.90153922189,4.77667667211,-0.526299095039,-0.399878622737,0.430469949156,-0.216936932386,0.00897502186525,-0.00350777746396,-0.0086203844742,0.0007559412662737316,-0.01813443550002849,-1.8077433616175356
1765456155.1943214,9.386388778686523,-3.90952727332,4.7852283391,-0.52933741278,-0.399089843336,0.429262598885,-0.212517214045,0.0156634690003,-0.0160110870344,0.0116499841128,0.0007559412662737316,-0.01813443550002849,-1.8077433616175356
1765456155.2150722,9.407139539718628,-3.91751906501,4.79378460671,-0.531772485323,-0.398276638177,0.428009913446,-0.206728029915,0.0211356283783,-0.0262406816383,0.0283357332003,0.0007559412662737316,-0.01813443550002849,-1.8077433616175356
1765456155.2344344,9.426501750946045,-3.92550211834,4.80233023444,-0.533683595128,-0.397443613259,0.426720164633,-0.199860119827,0.0256130201431,-0.0346106685985,0.0420679114637,0.0007559412662737316,-0.01813443550002849,-1.8077433616175356
1765456155.2542324,9.44629979133606,-3.93347270776,4.81085974584,-0.540097736864,-0.396594494894,0.425400253174,-0.203929180416,0.0292765430274,-0.0414592180175,0.0524308029556,0.0007559412662737316,-0.01813443550002849,-1.8077433616175356
1765456155.2767105,9.468777894973755,-3.941582151,4.81953408651,-0.545500716118,-0.395720179208,0.424038288065,-0.205126572171,0.0322827314554,-0.0470789536277,0.061157428149,0.0007559412662737316,-0.01813443550002849,-1.8077433616175356
1765456155.2955174,9.487584829330444,-3.94952404906,4.82802378359,-0.549891102214,-0.394846626599,0.422672576942,-0.204011893498,0.0347387636759,-0.0516702332697,0.0684694261789,0.0007559412662737316,-0.01813443550002849,-1.8077433616175356
1765456155.3162527,9.508320093154907,-3.95746004457,4.83650137048,-0.553481572314,-0.393963592803,0.42128941412,-0.200990814172,0.0367467841553,-0.0554240046864,0.0745964458906,0.0007559412662737316,-0.01813443550002849,-1.8077433616175356
1765456155.3356435,9.527710914611816,-3.96536909456,4.84494366791,-0.556376038501,-0.393074490702,0.419894499307,-0.196437402267,0.0383886417707,-0.0584932752691,0.0797259511547,0.0007559412662737316,-0.01813443550002849,-1.8077433616175356
1765456155.3555534,9.54762077331543,-3.97329702637,4.85347315491,-0.558738691539,-0.392314047337,0.419364598347,-0.191768751708,0.0382298050335,-0.0513350880414,0.0701192445316,-0.0023228423922807377,0.00018097787191511086,-1.830197937506593
1765456155.3762007,9.568268060684204,-3.9812011596,4.86197266206,-0.560592209107,-0.391554984575,0.41886184963,-0.186190044804,0.0380998586412,-0.0454788823407,0.0623357351023,-0.0023228423922807377,0.00018097787191511086,-1.830197937506593
1765456155.396534,9.588601350784302,-3.98910676529,4.87047160411,-0.565877817562,-0.390794744424,0.418378518045,-0.18906060106,0.0379935042889,-0.0406858830644,0.0552966138618,-0.0023228423922807377,0.00018097787191511086,-1.830197937506593
1765456155.4175982,9.609665632247925,-3.99698178488,4.87893761825,-0.570252761531,-0.390036361892,0.417914355584,-0.18969727666,0.0379064937109,-0.0367646365075,0.0497179457056,-0.0023228423922807377,0.00018097787191511086,-1.830197937506593
1765456155.4378448,9.62991213798523,-4.00483822325,4.88738513279,-0.573849123228,-0.389278602576,0.417464739397,-0.188495633326,0.0378353072735,-0.0335565257417,0.0453018811915,-0.0023228423922807377,0.00018097787191511086,-1.830197937506593
1765456155.4569569,9.649024248123169,-4.0127394879,4.89588349641,-0.576801080571,-0.388515244249,0.41702184559,-0.185774843583,0.0377769956013,-0.030928633262,0.0418063416061,-0.0023228423922807377,0.00018097787191511086,-1.830197937506593
1765456155.4771473,9.669214725494385,-4.02056793313,4.90430755607,-0.57915383441,-0.387757680492,0.416593408311,-0.181857100138,0.03772930939,-0.0287795912013,0.0390446573816,-0.0023228423922807377,0.00018097787191511086,-1.830197937506593
1765456155.4983156,9.690382957458496,-4.0284703433,4.91281586063,-0.581049533175,-0.386991587984,0.416166388085,-0.176952373465,0.0376902377447,-0.0270187759286,0.036860741919,-0.0023228423922807377,0.00018097787191511086,-1.830197937506593
1765456155.5188587,9.710926055908203,-4.03633948083,4.92129396323,-0.582513015078,-0.386227364758,0.41574749238,-0.171295305931,0.0376582605847,-0.0255776830024,0.0351342822824,-0.0023228423922807377,0.00018097787191511086,-1.830197937506593
1765456155.5405939,9.732661247253418,-4.04413907037,4.92970331136,-0.583599495974,-0.385468532327,0.41533760526,-0.165090193137,0.037632125647,-0.0243998775372,0.0337679429889,-0.0023228423922807377,0.00018097787191511086,-1.830197937506593
1765456155.555059,9.747126340866089,-4.05171016412,4.93791043998,-0.58971371746,-0.383058612235,0.413521820284,-0.167890965836,0.0558102220675,-0.0389698814057,0.0776701448485,-0.012048923075088685,0.0033781540439612374,-1.8538187116369964
1765456155.5790975,9.771164894104004,-4.05939576718,4.94624977734,-0.594849958508,-0.380561938891,0.411638560806,-0.167771793107,0.070708835853,-0.0509113331104,0.113866448028,-0.012048923075088685,0.0033781540439612374,-1.8538187116369964
1765456155.5985637,9.79063105583191,-4.06693951311,4.95444609233,-0.59903740951,-0.378029319562,0.409724776708,-0.165306595391,0.0828810452947,-0.0606675327998,0.143614777303,-0.012048923075088685,0.0033781540439612374,-1.8538187116369964
1765456155.6203482,9.812415599822998,-4.07446870623,4.96263835651,-0.602453181477,-0.375449109688,0.407773132468,-0.160903186548,0.0928349020325,-0.0686456911186,0.168084675556,-0.012048923075088685,0.0033781540439612374,-1.8538187116369964
1765456155.6410122,9.83307957649231,-4.08193817441,4.97077872691,-0.605187353227,-0.372838615657,0.405796871517,-0.154961480139,0.100972511721,-0.0751681014907,0.188204060288,-0.012048923075088685,0.0033781540439612374,-1.8538187116369964
1765456155.6590078,9.851075172424316,-4.08936678092,4.97888860777,-0.607343057579,-0.370199245405,0.403797461719,-0.147797152001,0.107627615497,-0.0805022622036,0.204748221748,-0.012048923075088685,0.0033781540439612374,-1.8538187116369964
1765456155.6836345,9.875701904296875,-4.09678865286,4.98700611178,-0.60901314008,-0.367525005733,0.401770677884,-0.139657152697,0.11307560925,-0.0848689069955,0.218361633676,-0.012048923075088685,0.0033781540439612374,-1.8538187116369964
1765456155.70105,9.893117427825928,-4.10413323023,4.9950548679,-0.617038326701,-0.36484039886,0.399735092983,-0.146954134387,0.117531550307,-0.0884404073841,0.228265433257,-0.012048923075088685,0.0033781540439612374,-1.8538187116369964
1765456155.7212393,9.913306713104248,-4.11143827375,5.00307665996,-0.623751106845,-0.362137085793,0.397684642505,-0.150706831302,0.121177353251,-0.0913625705069,0.236646479621,-0.012048923075088685,0.0033781540439612374,-1.8538187116369964
1765456155.7406547,9.932722091674805,-4.11869103065,5.01105796677,-0.629324231066,-0.359421555846,0.395624350505,-0.151522252001,0.124160219889,-0.0937533807131,0.243734207316,-0.012048923075088685,0.0033781540439612374,-1.8538187116369964
1765456155.761162,9.953229427337646,-4.12617648922,5.01931839928,-0.633997379284,-0.359622595312,0.396831506227,-0.15181355928,0.0944476504072,-0.0597090766765,0.226210954762,-0.023435607452642532,-0.03591957661714707,-1.8772135165489066
1765456155.7823136,9.97438097000122,-4.13362970216,5.0275612631,-0.637830542611,-0.359928794232,0.398160146985,-0.150201180941,0.0701346433996,-0.0318515262507,0.212029242528,-0.023435607452642532,-0.03591957661714707,-1.8772135165489066
1765456155.8014932,9.993560552597046,-4.14104980948,5.03578603779,-0.640941082198,-0.360323849034,0.399590111999,-0.147050220176,0.0502407135095,-0.00905730113065,0.200552598167,-0.023435607452642532,-0.03591957661714707,-1.8772135165489066
1765456155.8257084,10.017775774002075,-2.53676510017,3.32931704086,-0.643453170419,-0.0125031795341,0.00242032059649,-0.142462238171,0.0340109544175,0.00953128185688,0.191241417879,-0.023435607452642532,-0.03591957661714707,-1.8772135165489066
1765456155.842674,10.034741401672363,-2.53682192442,3.3291774362,-0.650930939309,-0.0129656495982,0.00392779181093,-0.150190984749,0.0206499851814,0.0248414433143,0.182665990929,-0.023435607452642532,-0.03591957661714707,-1.8772135165489066
1765456155.8614914,10.053558826446533,-2.53698538946,3.3291701788,-0.657184420428,-0.0135011689763,0.00551857050939,-0.154703360966,0.00972993720124,0.0373545853059,0.175916050818,-0.023435607452642532,-0.03591957661714707,-1.8772135165489066
1765456155.881791,10.073858499526978,-2.53722269089,3.32926080664,-0.662383417995,-0.0140927306793,0.00717315486854,-0.156545038473,0.000801425013017,0.0475856524466,0.170611820269,-0.023435607452642532,-0.03591957661714707,-1.8772135165489066
1765456155.901771,10.093838453292847,-2.53751234171,3.32942631265,-0.66668462,-0.0147277007782,0.00888045114694,-0.156169152352,-0.00650449020382,0.0559574067689,0.166448817821,-0.023435607452642532,-0.03591957661714707,-1.8772135165489066
1765456155.9230056,10.115072965621948,-2.53783765124,3.32964994747,-0.67020109243,-0.0153963602337,0.0106247244157,-0.153993358416,-0.0124810491324,0.0628058688885,0.163188257563,-0.023435607452642532,-0.03591957661714707,-1.8772135165489066
1765456155.9462485,10.138315916061401,-2.53818965468,3.32992190634,-0.673054517527,-0.016091895064,0.0124020322049,-0.150344865615,-0.0173723754509,0.0684107769343,0.160637371189,-0.023435607452642532,-0.03591957661714707,-1.8772135165489066
1765456155.9633198,10.155387163162231,-2.53854549227,3.33007676061,-0.67531172032,-0.0164362435146,0.0123997370607,-0.145231284918,-0.0172431989047,0.0531497034391,0.162505269074,-0.01473466173748745,-0.04231951890125737,-1.9003904748836482
1765456155.982733,10.174800395965576,-2.53888113432,3.33022486097,-0.678731618077,-0.0167743771101,0.0123359110927,-0.143112031275,-0.0171375220326,0.0406649595434,0.163794890983,-0.01473466173748745,-0.04231951890125737,-1.9003904748836482
1765456156.0021691,10.194236516952515,-2.53922974195,3.33039638381,-0.681504153713,-0.0171134236792,0.0122285966376,-0.13954623321,-0.0170510557738,0.0304497652045,0.164964441689,-0.01473466173748745,-0.04231951890125737,-1.9003904748836482
1765456156.0226076,10.214674949645996,-2.5395905198,3.33058543208,-0.683735652751,-0.0174550302293,0.0120883218342,-0.134792441583,-0.0169802320862,0.022082595969,0.166014634777,-0.01473466173748745,-0.04231951890125737,-1.9003904748836482
1765456156.0428946,10.234961986541748,-2.53995683997,3.33078313903,-0.685474615851,-0.01779436107,0.0119141384102,-0.12915151496,-0.0169223040906,0.0152389358328,0.166945367968,-0.01473466173748745,-0.04231951890125737,-1.9003904748836482
1765456156.062647,10.254714488983154,-2.54032929226,3.33098666166,-0.686807487252,-0.0181330933357,0.0117148810154,-0.122817450335,-0.0168749205802,0.00964101169238,0.167761602816,-0.01473466173748745,-0.04231951890125737,-1.9003904748836482
1765456156.0847156,10.276782989501953,-2.54071116423,3.33119544489,-0.68781493595,-0.0184747992353,0.0114964935,-0.115916988899,-0.016836097068,0.00505437425699,0.168472426193,-0.01473466173748745,-0.04231951890125737,-1.9003904748836482
1765456156.1042478,10.29631519317627,-2.54109501715,3.33140270121,-0.688510509305,-0.0188129453686,0.0112594560174,-0.108684091659,-0.0168043520036,0.00130399134526,0.16908224666,-0.01473466173748745,-0.04231951890125737,-1.9003904748836482
1765456156.1247294,10.316796779632568,-2.54147464072,3.33159738616,-0.692465253709,-0.0191507048139,0.0110055050789,-0.109469343735,-0.0167783580588,-0.00176694493613,0.168941620766,-0.01473466173748745,-0.04231951890125737,-1.9003904748836482
1765456156.1444843,10.336551666259766,-2.5418629959,3.33179409945,-0.695716042894,-0.0194877858602,0.0107408354224,-0.108577022304,-0.0167570943249,-0.00427905328142,0.168961044876,-0.01473466173748745,-0.04231951890125737,-1.9003904748836482
1765456156.165351,10.357418298721313,-2.54219069162,3.331924796,-0.698574309383,-0.0191218111241,0.00978528316578,-0.110947391193,-0.00901327692656,-0.0138483976741,0.111506765898,0.0007539755595052656,-0.03267024960995219,-1.9232020475168308
1765456156.1845238,10.376591205596924,-2.54252190183,3.3320499299,-0.700927809195,-0.0187280464802,0.00879572231568,-0.112392231947,-0.00268107574759,-0.0216733515345,0.0646197003329,0.0007539755595052656,-0.03267024960995219,-1.9232020475168308
1765456156.204364,10.39643144607544,-2.5428540423,3.33216608649,-0.702859591384,-0.0183115584669,0.00777792511303,-0.113075883778,0.00249870095659,-0.0280742084517,0.0263427870256,0.0007539755595052656,-0.03267024960995219,-1.9232020475168308
1765456156.2247105,10.416777849197388,-2.54318497189,3.33227048452,-0.704438249089,-0.0178762311254,0.00673644961289,-0.113138563543,0.00673707154059,-0.0333117322329,-0.00491455803167,0.0007539755595052656,-0.03267024960995219,-1.9232020475168308
1765456156.24618,10.438247442245483,-2.54352216823,3.33236389082,-0.705766185644,-0.0174204079849,0.00565592933072,-0.112674378579,0.0102193656864,-0.0376149421672,-0.0305417956913,0.0007539755595052656,-0.03267024960995219,-1.9232020475168308
1765456156.2678165,10.45988392829895,-2.54384710556,3.33243837973,-0.70679566556,-0.0169542659501,0.00457306633163,-0.111808162946,0.0130654563696,-0.0411319700771,-0.0514457402334,0.0007539755595052656,-0.03267024960995219,-1.9232020475168308
1765456156.2855787,10.477646112442017,-2.54416537374,3.33249642613,-0.709443563745,-0.0164796017029,0.00348292294051,-0.114995366579,0.0153898583279,-0.0440043263973,-0.0688336448422,0.0007539755595052656,-0.03267024960995219,-1.9232020475168308
1765456156.3057144,10.497781753540039,-2.54447675901,3.33253613056,-0.711657852217,-0.0159968230979,0.00238308364928,-0.117118310447,0.0172893046508,-0.0463515480689,-0.08295195648,0.0007539755595052656,-0.03267024960995219,-1.9232020475168308
1765456156.3259943,10.518061637878418,-2.54478093663,3.3325565499,-0.713504246285,-0.0155068642137,0.00127391100378,-0.118356060263,0.0188424885392,-0.048270879423,-0.0944210655277,0.0007539755595052656,-0.03267024960995219,-1.9232020475168308
1765456156.3484936,10.540560960769653,-2.54507726365,3.33255684008,-0.715035851015,-0.0150108423646,0.000156761438198,-0.118859739438,0.0201130509123,-0.0498409640848,-0.10374062871,0.0007539755595052656,-0.03267024960995219,-1.9232020475168308
1765456156.3674045,10.559471845626831,-2.54555905385,3.3323279399,-0.715734221028,-0.0164372603896,-0.00302752909509,-0.106728181395,-2.66695985736e-05,-0.0738103758351,0.0384575640892,-0.0010983627950286615,-0.017869482180484633,-1.946076071277576
1765456156.3864706,10.578537940979004,-2.54604058983,3.33206983505,-0.71618302633,-0.0179361752206,-0.00630114290707,-0.0936236156611,-0.0165071570239,-0.0934247289104,0.154846071187,-0.0010983627950286615,-0.017869482180484633,-1.946076071277576
1765456156.406578,10.598645448684692,-2.54653054901,3.3317732189,-0.716401091409,-0.0194983542046,-0.00965927001072,-0.0797655955538,-0.0300054297066,-0.109489780839,0.250189510451,-0.0010983627950286615,-0.017869482180484633,-1.946076071277576
1765456156.427438,10.619505405426025,-2.54703425256,3.33143827506,-0.719328618055,-0.0211080891355,-0.0130625018165,-0.0724155417521,-0.0410449086703,-0.122628484359,0.327615553567,-0.0010983627950286615,-0.017869482180484633,-1.946076071277576
1765456156.447422,10.63948941230774,-2.54755299334,3.33105351983,-0.721647002049,-0.0227567059007,-0.016510778075,-0.0634635582003,-0.050073671266,-0.133374121475,0.39103958459,-0.0010983627950286615,-0.017869482180484633,-1.946076071277576
1765456156.4670806,10.65914797782898,-2.54809060122,3.33061481526,-0.723432535198,-0.0244366285313,-0.019995086635,-0.0532623930733,-0.0574583595457,-0.142163053472,0.442991918847,-0.0010983627950286615,-0.017869482180484633,-1.946076071277576
1765456156.4880118,10.680079221725464,-2.54865144985,3.3301177279,-0.724756707098,-0.0261446588914,-0.0235151098439,-0.0420915309196,-0.0635009187482,-0.149354642325,0.485559774926,-0.0010983627950286615,-0.017869482180484633,-1.946076071277576
1765456156.5078106,10.699877977371216,-2.54923712362,3.32956027723,-0.725679807749,-0.02787357146,-0.02705900506,-0.0302266516575,-0.0684448845532,-0.155238733517,0.520428898521,-0.0010983627950286615,-0.017869482180484633,-1.946076071277576
1765456156.5287278,10.720795154571533,-2.54985027966,3.32893971592,-0.726259023493,-0.0296206090013,-0.0306248462642,-0.0178773992081,-0.072490447933,-0.160053585558,0.548987574768,-0.0010983627950286615,-0.017869482180484633,-1.946076071277576
1765456156.549272,10.741339445114136,-2.54996328118,3.32843761929,-0.726882283994,-0.025795750382,-0.0321241693576,-0.0114142764514,-0.0131145633851,-0.138389963168,0.484988577783,-0.05635478148132767,-0.025850114601287034,-1.9637244403473675
1765456156.570022,10.762089490890503,-2.5500424847,3.32792650182,-0.728537288773,-0.0216639276416,-0.0333067221158,-0.00898411014608,0.0351728708381,-0.120772023677,0.432707489481,-0.05635478148132767,-0.025850114601287034,-1.9637244403473675
1765456156.5896306,10.781697988510132,-2.55011028639,3.32736464736,-0.729822581742,-0.017369695327,-0.0344307418484,-0.00612942993183,0.0745266437803,-0.106413580294,0.390150264223,-0.05635478148132767,-0.025850114601287034,-1.9637244403473675
1765456156.6097612,10.801828622817993,-2.55015029015,3.32675730402,-0.73080530233,-0.0129382399258,-0.0355091123243,-0.00295871986872,0.10665181532,-0.0946925324184,0.355448759863,-0.05635478148132767,-0.025850114601287034,-1.9637244403473675
1765456156.630684,10.82275128364563,-2.55014825196,3.32611079957,-0.731539801418,-0.00839535107196,-0.0365461534564,0.000418636932693,0.132896051264,-0.0851171766703,0.32712845387,-0.05635478148132767,-0.025850114601287034,-1.9637244403473675
1765456156.6507792,10.842846632003784,-2.55009321931,3.32542974316,-0.732071210075,-0.00376306680223,-0.0375481351644,0.00392352749136,0.154344941964,-0.0772914293598,0.30400331845,-0.05635478148132767,-0.025850114601287034,-1.9637244403473675
1765456156.6733205,10.865387916564941,-2.54997648295,3.32471667227,-0.732436908861,0.000945114767437,-0.0385229305862,0.00750219963596,0.17188301504,-0.0708925656553,0.285108492076,-0.05635478148132767,-0.025850114601287034,-1.9637244403473675
1765456156.6918077,10.883875131607056,-2.54979072364,3.32397451936,-0.732667854556,0.00571499842996,-0.0394749440006,0.011103627718,0.186227207612,-0.0656590070528,0.269663128169,-0.05635478148132767,-0.025850114601287034,-1.9637244403473675
1765456156.7110202,10.903087615966797,-2.54953001872,3.32320297094,-0.733707124415,0.0105522231894,-0.0404134864668,0.0125298904419,0.197968847579,-0.0613750042725,0.256850668144,-0.05635478148132767,-0.025850114601287034,-1.9637244403473675
1765456156.7303443,10.922411680221558,-2.54918990851,3.32240982902,-0.734530333482,0.0154133616168,-0.0413306565095,0.0142938002229,0.207571367624,-0.0578714713177,0.246405860929,-0.05635478148132767,-0.025850114601287034,-1.9637244403473675
