timestamp_abs,timestamp_rel,x,y,z,vx,vy,vz,ax,ay,az,roll,pitch,yaw
1765470128.2825053,0.9446110725402832,9.09698947693e-15,1.74941548054e-13,-0.0313923976089,3.17962827925e-09,6.11465028974e-08,-1.6596893045e-07,0.000555683496719,0.0106861870502,0.00238723660217,0.04381233720554448,0.07197118776771323,1.38230670642874
1765470128.3014731,0.9635789394378662,1.34835475929e-07,2.59298166184e-06,-0.0315529686274,1.33833678905e-05,0.000257371639583,-0.00025161192307,0.000670754273254,0.0128990795498,0.00288097692746,0.04381233720554448,0.07197118776771323,1.38230670642874
1765470128.3229835,0.9850893020629883,6.15613248758e-07,1.18386786105e-05,-0.0316145774207,2.96676546791e-05,0.000570530003345,-0.0004654644764,0.000721818342601,0.0138810777553,0.00309959105433,0.04381233720554448,0.07197118776771323,1.38230670642874
1765470128.3428135,1.0049192905426025,1.40322176382e-06,2.69849479599e-05,-0.0316515391054,4.56735284681e-05,0.000878334288016,-0.000603499297361,0.000751023089507,0.0144427057144,0.00322457523245,0.04381233720554448,0.07197118776771323,1.38230670642874
1765470128.3639202,1.0260260105133057,2.52842498658e-06,4.86234025458e-05,-0.0316773526803,6.2065924053e-05,0.00119357166047,-0.000654360391823,0.000770158308855,0.0148106895297,0.00330665240617,0.04381233720554448,0.07197118776771323,1.38230670642874
1765470128.38302,1.0451257228851318,-8.46014785672e-06,7.25131344159e-05,-0.0347336213419,-0.000187873208866,0.00142427955124,-0.0266316874741,-0.00306274602404,0.0138341020275,0.00566133308483,0.04344990178713071,0.07205698316670582,1.3823747501945913
1765470128.403017,1.0651228427886963,-2.44730271917e-05,0.000101056629261,-0.0371201605044,-0.000464318836108,0.00164826519906,-0.041757109738,-0.00591703642716,0.0131068560298,0.00745432499501,0.04344990178713071,0.07205698316670582,1.3823747501945913
1765470128.423702,1.0858078002929688,-4.56077643636e-05,0.0001341960409,-0.0389119476723,-0.000758032717781,0.00186763502993,-0.0489374891949,-0.00811144927199,0.0125477405464,0.00886957846562,0.04344990178713071,0.07205698316670582,1.3823747501945913
1765470128.4436634,1.105769157409668,-7.20051936851e-05,0.000171967784659,-0.0402147791048,-0.00106395406713,0.00208420810666,-0.0509977700667,-0.00983458600403,0.012108701726,0.0100103114654,0.04344990178713071,0.07205698316670582,1.3823747501945913
1765470128.4637167,1.1258225440979004,-0.000103774138234,0.000214279696979,-0.0411377834045,-0.00137849794514,0.00229843790217,-0.0500697357599,-0.0112063504769,0.0117591892091,0.0109404013058,0.04344990178713071,0.07205698316670582,1.3823747501945913
1765470128.484157,1.1462628841400146,-0.000141046651194,0.000261080866313,-0.0417781774744,-0.0016993748813,0.00251086593943,-0.0475590564242,-0.0123083797367,0.0114784026544,0.0117035646001,0.04344990178713071,0.07205698316670582,1.3823747501945913
1765470128.5041153,1.1662211418151855,-0.000184022780389,0.000312404689635,-0.0422138389641,-0.00202539464273,0.00272222753894,-0.0443159683784,-0.0131993053467,0.0112514032981,0.0123321022442,0.04344990178713071,0.07205698316670582,1.3823747501945913
1765470128.5242345,1.18634033203125,-0.000232827521861,0.000368169204285,-0.0416591330152,-0.00235523516694,0.00293259125399,-0.0363439176291,-0.013922485312,0.0110671439338,0.0129080971852,0.04344990178713071,0.07205698316670582,1.3823747501945913
1765470128.5442681,1.206373929977417,-0.000287617068596,0.000428350476323,-0.0411842145651,-0.0026881341098,0.00314221752541,-0.0300663772168,-0.0145111130705,0.0109171671896,0.0133673600167,0.04344990178713071,0.07205698316670582,1.3823747501945913
1765470128.564448,1.2265539169311523,-0.00034850598863,0.000492889414501,-0.04077730975,-0.00302335405176,0.00335117925684,-0.0250639747942,-0.0149910714338,0.010794878372,0.0137335227529,0.04344990178713071,0.07205698316670582,1.3823747501945913
1765470128.5844777,1.2465834617614746,-0.000442086144758,0.000561978798754,-0.0404339447543,-0.00365230631771,0.00356140856121,-0.0212018013342,-0.0186307419905,0.0107122348229,0.0114231524447,0.04365946343659552,0.07217810706203398,1.3825948604586864
1765470128.604521,1.2666268348693848,-0.000544123295292,0.000635333581489,-0.0401387270059,-0.00429523239802,0.00377112145742,-0.0180908752069,-0.0216043698693,0.0106447146566,0.00952924633997,0.04365946343659552,0.07217810706203398,1.3825948604586864
1765470128.6248507,1.286956548690796,-0.000656132184286,0.000713453877453,-0.0398852333729,-0.00495233054335,0.00398180016296,-0.0155541554045,-0.024037292405,0.0105894719225,0.00797421608481,0.04365946343659552,0.07217810706203398,1.3825948604586864
1765470128.6455326,1.30763840675354,-0.000777803376803,0.000795417701716,-0.0396642727305,-0.00561612427939,0.00419101799253,-0.0134709816424,-0.02602593153,0.0105443172327,0.00669806115018,0.04365946343659552,0.07217810706203398,1.3825948604586864
1765470128.665519,1.327624797821045,-0.000910330338783,0.000881670084132,-0.0387902300542,-0.00628751380569,0.00440010582728,-0.00928914612085,-0.027652145622,0.0105073918841,0.00572504021792,0.04365946343659552,0.07217810706203398,1.3825948604586864
1765470128.6854825,1.347588300704956,-0.00105423468723,0.000972167650254,-0.0380651739267,-0.00696490734614,0.00460902016495,-0.00608797285852,-0.0289823054048,0.0104771888414,0.00490892616861,0.04365946343659552,0.07217810706203398,1.3825948604586864
1765470128.705829,1.3679347038269043,-0.00121004704317,0.00106693656765,-0.0374619169971,-0.00764740146331,0.00481787178437,-0.00363026353482,-0.0300705539847,0.0104524787136,0.00422379830962,0.04365946343659552,0.07217810706203398,1.3825948604586864
1765470128.7258961,1.3880019187927246,-0.00137807485026,0.00116590964339,-0.0369587450641,-0.00833371796431,0.00502655431098,-0.00174121016837,-0.030960934924,0.010432261433,0.00364818027519,0.04365946343659552,0.07217810706203398,1.3825948604586864
1765470128.7457829,1.407888650894165,-0.00155876534852,0.00126914957016,-0.0365382394974,-0.00902354539897,0.00523523410798,-0.000290099406393,-0.0316895369406,0.0104157175575,0.00316414917264,0.04365946343659552,0.07217810706203398,1.3825948604586864
1765470128.767789,1.4298946857452393,-0.00175248207567,0.00137669461358,-0.0361862799764,-0.00971652777031,0.00544400155929,0.000821354403395,-0.0322858418224,0.010402177664,0.00275678775065,0.04365946343659552,0.07217810706203398,1.3825948604586864
1765470128.786185,1.4482908248901367,-0.00193503591358,0.00149833064962,-0.0358894075793,-0.0101674326586,0.00575245050623,0.00171745477465,-0.0300834970996,0.0114914200235,0.0030739156589,0.044069419635710386,0.07213213424371649,1.3828438660206088
1765470128.8056607,1.467766523361206,-0.00213023624324,0.00162490564889,-0.0356400659765,-0.0106114376118,0.0060654374435,0.00240827038281,-0.0282806183579,0.0123830932815,0.00332513236564,0.044069419635710386,0.07213213424371649,1.3828438660206088
1765470128.826611,1.4887168407440186,-0.00233624699009,0.00175613060317,-0.0354308359835,-0.011046942092,0.00638093732788,0.00293635764591,-0.0268056934949,0.0131125661116,0.00352340883026,0.044069419635710386,0.07213213424371649,1.3828438660206088
1765470128.8462787,1.5083844661712646,-0.00255320274625,0.00189270715515,-0.0352551628378,-0.011477230928,0.00669918024731,0.00333560042403,-0.0255988304456,0.0137094601136,0.00367943257999,0.044069419635710386,0.07213213424371649,1.3828438660206088
1765470128.867008,1.52911376953125,-0.00278055047909,0.00203483561657,-0.0351077671468,-0.011903103037,0.00701960131792,0.00363223811938,-0.0246112378945,0.0141979066449,0.00380178200544,0.044069419635710386,0.07213213424371649,1.3828438660206088
1765470128.8867784,1.5488841533660889,-0.00301801205832,0.00218278452323,-0.0349842192123,-0.0123255956857,0.00734194529816,0.00384696015364,-0.0238029792557,0.0145976576637,0.00389736176176,0.044069419635710386,0.07213213424371649,1.3828438660206088
1765470128.9078724,1.5699782371520996,-0.00326508982465,0.00233661537663,-0.0348809036758,-0.0127450128374,0.00766568462413,0.00399607873602,-0.0231415161614,0.0149248060951,0.00397170501658,0.044069419635710386,0.07213213424371649,1.3828438660206088
1765470128.927525,1.5896308422088623,-0.00352158093999,0.00249650041261,-0.0347947268747,-0.0131620257579,0.0079906319035,0.00409266632918,-0.0226001759847,0.0151925437681,0.00402925873693,0.044069419635710386,0.07213213424371649,1.3828438660206088
1765470128.9491181,1.6112239360809326,-0.00378726546991,0.00266254954685,-0.0349140173645,-0.0135770733784,0.00831657004841,0.0036572825095,-0.0221571382923,0.0154116626992,0.00404124972408,0.044069419635710386,0.07213213424371649,1.3828438660206088
1765470128.968129,1.630234718322754,-0.004053088924,0.00285388802546,-0.0350215497244,-0.0137880148798,0.00876373997622,0.00315814679977,-0.0193259179283,0.0167517780925,0.00239055043681,0.04388706800244562,0.07207789730364135,1.3828349444309571
1765470128.9883173,1.6504230499267578,-0.00431355652841,0.00304377851235,-0.0351183163331,-0.0139674240919,0.00920040699708,0.0027092809341,-0.0170180675242,0.0178441642208,0.00104868457331,0.04388706800244562,0.07207789730364135,1.3828349444309571
1765470129.008451,1.6705567836761475,-0.00458085024409,0.00324073192337,-0.0352030908206,-0.014138597309,0.00964063895717,0.00230679236549,-0.0151345080351,0.0187357186536,-4.32543977893e-05,0.04388706800244562,0.07207789730364135,1.3828349444309571
1765470129.028709,1.690814733505249,-0.00485604547915,0.00344642133122,-0.035277616308,-0.0143048601628,0.0100862455643,0.00194390180871,-0.0135944497983,0.0194646819571,-0.00093323461578,0.04388706800244562,0.07207789730364135,1.3828349444309571
1765470129.048926,1.7110319137573242,-0.00513537641796,0.00365898945187,-0.0353437275412,-0.0144641631824,0.0105324974716,0.00161600471441,-0.012336002145,0.0200603491448,-0.00165793076045,0.04388706800244562,0.07207789730364135,1.3828349444309571
1765470129.0689528,1.7310585975646973,-0.00541962527814,0.00387956601595,-0.0354024558906,-0.0146189049698,0.0109806613732,0.00131882733193,-0.0113072094941,0.0205473126061,-0.00224810296348,0.04388706800244562,0.07207789730364135,1.3828349444309571
1765470129.0890958,1.7512016296386719,-0.00570863461432,0.00410855321214,-0.0324712461776,-0.0147700992791,0.0114307390662,0.0083409542507,-0.0104657810835,0.0209455900343,-0.00218915560795,0.04388706800244562,0.07207789730364135,1.3828349444309571
1765470129.1092608,1.7713665962219238,-0.00600182445926,0.00434594164763,-0.0299647041687,-0.014918220046,0.0118820986768,0.0139583066044,-0.00977747536066,0.0212713891512,-0.00224093071624,0.04388706800244562,0.07207789730364135,1.3828349444309571
1765470129.1293569,1.7914626598358154,-0.0062991037883,0.00459201920738,-0.0278252298291,-0.015063938219,0.0123347622414,0.0183909805271,-0.0092143015174,0.0215379589831,-0.00236897345746,0.04388706800244562,0.07207789730364135,1.3828349444309571
1765470129.1495132,1.8116190433502197,-0.00660055746368,0.00484717037816,-0.0260027714805,-0.0152078708879,0.0127889748859,0.0218253347283,-0.00875337644954,0.0217561309017,-0.00254698680892,0.04388706800244562,0.07207789730364135,1.3828349444309571
1765470129.1695042,1.8316099643707275,-0.00692251496279,0.00514236991335,-0.0244476571124,-0.0155200816671,0.0135548245307,0.0245936767948,-0.0102475941164,0.0253584221439,-0.000563997483159,0.043644200194598005,0.07216036375127133,1.383029887822751
1765470129.1899173,1.8520231246948242,-0.00725052825005,0.00544948891488,-0.0231269903282,-0.0158390805555,0.0143371197751,0.0266632030678,-0.0114714714938,0.0283089713553,0.00100698656921,0.043644200194598005,0.07216036375127133,1.383029887822751
1765470129.2099733,1.8720791339874268,-0.00758074609498,0.00576585092193,-0.0220158803554,-0.0161608658001,0.0151260321159,0.0281448622994,-0.0124723048439,0.0307218013547,0.00224651568723,0.043644200194598005,0.07216036375127133,1.383029887822751
1765470129.2305863,1.8926920890808105,-0.00792425017549,0.0061025357627,-0.0245875689373,-0.0164927741784,0.0159396778626,0.0206915084207,-0.0132940224567,0.0327028153836,0.00257056788214,0.043644200194598005,0.07216036375127133,1.383029887822751
1765470129.2507308,1.9128365516662598,-0.00826515195143,0.00644492934156,-0.0268226904709,-0.0168214298946,0.0167451608449,0.0144496205899,-0.0139650097559,0.0343204456159,0.0029273205725,0.043644200194598005,0.07216036375127133,1.383029887822751
1765470129.2716312,1.93373703956604,-0.00861159912497,0.00680107014959,-0.0287535068244,-0.0171523827844,0.0175561787863,0.00924702798505,-0.0145133162499,0.0356423143941,0.00329817290425,0.043644200194598005,0.07216036375127133,1.383029887822751
1765470129.2916703,1.9537761211395264,-0.0089638459783,0.007171531337,-0.0304195968208,-0.0174852300728,0.0183717617586,0.00493559237155,-0.0149616007239,0.0367230479916,0.00366971157865,0.043644200194598005,0.07216036375127133,1.383029887822751
1765470129.311765,1.9738707542419434,-0.00932214455921,0.00755682975273,-0.0318552356453,-0.0178196809002,0.0191912110436,0.00138809445368,-0.0153282463948,0.0376069650531,0.00403242754006,0.043644200194598005,0.07216036375127133,1.383029887822751
1765470129.3320155,1.9941213130950928,-0.00968702910798,0.00795775496829,-0.0330903535415,-0.0181557776042,0.0200146424165,-0.0015053068494,-0.0156282420707,0.038330200911,0.00437978538105,0.043644200194598005,0.07216036375127133,1.383029887822751
1765470129.3535948,2.015700578689575,-0.0100577732682,0.00837367753562,-0.0341505190868,-0.0184925553395,0.0208396989675,-0.00383839476599,-0.0158736759,0.0389218979265,0.00470745278938,0.043644200194598005,0.07216036375127133,1.383029887822751
1765470129.3715556,2.033661365509033,-0.0103980881654,0.00875009632302,-0.0350655038965,-0.0184611121328,0.0211155508021,-0.00584296752691,-0.0120086688673,0.0333287241151,0.00314324732977,0.043680369251152644,0.07219658274209641,1.3832599849409337
1765470129.3924334,2.054539203643799,-0.0107429936289,0.00913975839947,-0.0336442096342,-0.0184153975534,0.0213703697903,-0.00219481997226,-0.00884609149353,0.0287520584598,0.00230871930129,0.043680369251152644,0.07219658274209641,1.3832599849409337
1765470129.4125662,2.074671983718872,-0.0110915992681,0.00954123880688,-0.0324180026545,-0.0183582773338,0.0216086681044,0.000806827575739,-0.00625804813046,0.0250068191269,0.00157544604321,0.043680369251152644,0.07219658274209641,1.3832599849409337
1765470129.4325643,2.094670057296753,-0.0114431236065,0.00995333165454,-0.0313621718177,-0.0182918837709,0.0218337862544,0.00325308040146,-0.00413978313851,0.0219414109197,0.000931938716091,0.043680369251152644,0.07219658274209641,1.3832599849409337
1765470129.4544797,2.1165854930877686,-0.0117966117394,0.0103746870345,-0.0304551146348,-0.0182178155692,0.0220479731263,0.00522283706565,-0.00240590790369,0.0194322652769,0.000367966723754,0.043680369251152644,0.07219658274209641,1.3832599849409337
1765470129.472937,2.135042905807495,-0.0121506327132,0.0108034009249,-0.0296782844846,-0.0181373665087,0.0222524773113,0.00678431750503,-0.00098704120468,0.0173789784405,-0.000125484528089,0.043680369251152644,0.07219658274209641,1.3832599849409337
1765470129.492961,2.155066728591919,-0.0125054483506,0.0112396534531,-0.0290147130297,-0.0180517859538,0.0224498521763,0.00799764438027,0.000174297439938,0.0156983685895,-0.000556638699841,0.043680369251152644,0.07219658274209641,1.3832599849409337
1765470129.513164,2.175269842147827,-0.0128603757237,0.0116825110163,-0.0284498449851,-0.017961960543,0.0226412058697,0.00891478274946,0.0011248813098,0.0143227486329,-0.000932764495212,0.043680369251152644,0.07219658274209641,1.3832599849409337
1765470129.533326,2.195431709289551,-0.0132148527691,0.0121311957701,-0.0305387696926,-0.0178686574297,0.0228275002494,0.00347412399254,0.00190291131484,0.0131968368268,-0.00174331318643,0.043680369251152644,0.07219658274209641,1.3832599849409337
1765470129.5534542,2.215559959411621,-0.0135685320844,0.0125852072449,-0.0323424873934,-0.0177725148635,0.0230096361291,-0.00103235798872,0.00253967995814,0.0122753488012,-0.00233263954962,0.043680369251152644,0.07219658274209641,1.3832599849409337
1765470129.5728922,2.2349979877471924,-0.0139561349252,0.0130566334477,-0.033892439516,-0.018019425067,0.0233103099593,-0.004637211415,-0.000743327430925,0.0128632346902,-0.00154732852548,0.04428017138528733,0.07200530951917987,1.3835579926669137
1765470129.5938015,2.2559072971343994,-0.0143436423302,0.0135329036589,-0.035224228378,-0.0182783167496,0.0236129380935,-0.00754526170364,-0.0034299879784,0.0133443331579,-0.000849865502806,0.04428017138528733,0.07200530951917987,1.3835579926669137
1765470129.6137822,2.275887966156006,-0.0147324877659,0.0140146313065,-0.0363655731852,-0.018547003401,0.0239173566273,-0.00985646673735,-0.00562877600155,0.0137380686262,-0.000232101695327,0.04428017138528733,0.07200530951917987,1.3835579926669137
1765470129.6351092,2.297214984893799,-0.0151235976857,0.0145019994045,-0.037340808714,-0.0188237327612,0.02422326089,-0.011657838803,-0.00742836791399,0.0140603203198,0.000313622603757,0.04428017138528733,0.07200530951917987,1.3835579926669137
1765470129.6547177,2.3168234825134277,-0.0155177337679,0.0149951621949,-0.0381713108658,-0.0191070719964,0.0245304034102,-0.0130250998668,-0.00890128371092,0.0143240743447,0.00079444783453,0.04428017138528733,0.07200530951917987,1.3835579926669137
1765470129.6743526,2.336458444595337,-0.0159154677355,0.0154941795118,-0.0357590284316,-0.0193958218535,0.0248385421227,-0.00661706886189,-0.0101068212344,0.0145399491249,0.00180381073676,0.04428017138528733,0.07200530951917987,1.3835579926669137
1765470129.6943588,2.3564646244049072,-0.0163203495338,0.016003039621,-0.0336719134173,-0.0196906779952,0.0251497744135,-0.00127961084493,-0.011094640395,0.0147168372268,0.0025456409309,0.04428017138528733,0.07200530951917987,1.3835579926669137
1765470129.7152278,2.377333641052246,-0.0167276028687,0.0165151814374,-0.0318706531935,-0.0199880889089,0.0254600741104,0.00312516486025,-0.0119028808823,0.0148615682983,0.0030784132797,0.04428017138528733,0.07200530951917987,1.3835579926669137
1765470129.735306,2.397411823272705,-0.0171385936456,0.0170319950836,-0.0303206887368,-0.0202878259587,0.0257701074496,0.0067251419052,-0.0125639320115,0.0149799422722,0.00345019787922,0.04428017138528733,0.07200530951917987,1.3835579926669137
1765470129.7555401,2.4176459312438965,-0.0175543783122,0.0175545307602,-0.0289900455134,-0.020589783656,0.0260803684731,0.00963436386403,-0.0131046658081,0.0150767711035,0.00369944873043,0.04428017138528733,0.07200530951917987,1.3835579926669137
1765470129.7744377,2.4365434646606445,-0.0179899207775,0.0181020019846,-0.0278504046923,-0.0210338237559,0.0265734305681,0.0119468255213,-0.0150874699381,0.0171619718707,0.00378391391046,0.044145906454455305,0.07217551880234957,1.3835947442899568
1765470129.7952273,2.4573330879211426,-0.0184316156572,0.0186564912914,-0.0268769425997,-0.0214851583407,0.027074170338,0.0137542617389,-0.0167100890245,0.0188683867972,0.00381296773298,0.044145906454455305,0.07217551880234957,1.3835947442899568
1765470129.8140376,2.4761433601379395,-0.0188791906124,0.0192175171643,-0.0289818450893,-0.021941736551,0.0275803748039,0.00816340053725,-0.0180376083163,0.0202644622864,0.00325010983367,0.044145906454455305,0.07217551880234957,1.3835947442899568
1765470129.8380613,2.50016713142395,-0.0193376333483,0.0197912305254,-0.0308023143333,-0.0224061336158,0.0280950119163,0.00350913447532,-0.0191251834219,0.0214082023111,0.00286346002154,0.044145906454455305,0.07217551880234957,1.3835947442899568
1765470129.856025,2.5181307792663574,-0.0198005845096,0.0203695545075,-0.032373178815,-0.0228718219041,0.0286108185443,-0.00032980408926,-0.0200147438417,0.0223437017089,0.00261206520534,0.044145906454455305,0.07217551880234957,1.3835947442899568
1765470129.8759058,2.5380115509033203,-0.0202720836232,0.0209574865115,-0.0337254263904,-0.023341139531,0.0291304684984,-0.00346747221974,-0.0207426175568,0.0231091645231,0.00246207374207,0.044145906454455305,0.07217551880234957,1.3835947442899568
1765470129.8961754,2.558281183242798,-0.0207515134836,0.0215541955106,-0.0348866717562,-0.0238126998359,0.0296524519319,-0.00600248604683,-0.0213381489265,0.0237354505239,0.00238720793028,0.044145906454455305,0.07217551880234957,1.3835947442899568
1765470129.9162924,2.5783982276916504,-0.0212398117437,0.0221608031304,-0.0358815361008,-0.0242866372863,0.0301769485522,-0.00802141572214,-0.0218254981244,0.0242479675728,0.00236689834462,0.044145906454455305,0.07217551880234957,1.3835947442899568
1765470129.93647,2.5985758304595947,-0.0217369941545,0.0227772889448,-0.0367313997642,-0.0247623951743,0.0307033624012,-0.0095994282467,-0.0222243401324,0.0246674067139,0.0023852561674,0.044145906454455305,0.07217551880234957,1.3835947442899568
1765470129.957164,2.619269847869873,-0.0222467728698,0.0234082153591,-0.0343369425391,-0.0252428062328,0.031234854405,-0.00339157515975,-0.0225510982601,0.0250110393946,0.00301848134741,0.044145906454455305,0.07217551880234957,1.3835947442899568
1765470129.9769933,2.63909912109375,-0.0227399334575,0.0240423459853,-0.0322747586351,-0.0254996259803,0.0317370983624,0.00162673499169,-0.0203768743985,0.0249934669017,0.00199542995381,0.043671227118473106,0.07215939835537617,1.3836771691256946
1765470129.997672,2.659777879714966,-0.0232410068519,0.0246860664571,-0.0304996117066,-0.0257482220424,0.0322388496402,0.00571628684692,-0.018598319116,0.0249790922779,0.0010852336022,0.043671227118473106,0.07215939835537617,1.3836771691256946
1765470130.0171733,2.679279088973999,-0.0237498363054,0.0253400943323,-0.0289750244437,-0.0259904950837,0.0327406918855,0.00900903274832,-0.0171430934465,0.0249673308658,0.000277619207252,0.043671227118473106,0.07215939835537617,1.3836771691256946
1765470130.0374615,2.6995673179626465,-0.0242655096009,0.0260040370648,-0.0276692150175,-0.0262273899119,0.0332423367525,0.0116194094232,-0.0159523506407,0.0249577070548,-0.000437052855137,0.043671227118473106,0.07215939835537617,1.3836771691256946
1765470130.0577164,2.7198221683502197,-0.0247876548181,0.0266780422391,-0.0265541312959,-0.0264599493281,0.0337439110619,0.0136472448109,-0.0149779405537,0.0249498316862,-0.00106783617368,0.043671227118473106,0.07215939835537617,1.3836771691256946
1765470130.0777867,2.7398924827575684,-0.0253157908111,0.0273620064621,-0.0256052182904,-0.0266889137904,0.0342453497627,0.0151793724577,-0.0141805305837,0.0249433868663,-0.00162313092094,0.043671227118473106,0.07215939835537617,1.3836771691256946
1765470130.0977013,2.7598071098327637,-0.0258499501947,0.0280563928137,-0.0255337241504,-0.0269151157686,0.0347469970026,0.0145498842777,-0.0135278826962,0.0249381120413,-0.0022488497213,0.043671227118473106,0.07215939835537617,1.3836771691256946
1765470130.117613,2.7797188758850098,-0.0263893579013,0.0287605491933,-0.0254852129552,-0.0271388153869,0.0352483872322,0.0138920512095,-0.0129937518346,0.0249337950936,-0.00276296556868,0.043671227118473106,0.07215939835537617,1.3836771691256946
1765470130.1378355,2.799941301345825,-0.0269339363865,0.0294746555057,-0.0254560168037,-0.0273605240184,0.0357496607365,0.013216471683,-0.0125566107338,0.0249302620357,-0.00318494849791,0.043671227118473106,0.07215939835537617,1.3836771691256946
1765470130.158258,2.820363759994507,-0.0274930591083,0.0302112637929,-0.0254399437632,-0.0275848631421,0.0362594561064,0.0125274029132,-0.0121979277989,0.0249273630916,-0.0035320227778,0.043671227118473106,0.07215939835537617,1.3836771691256946
1765470130.1785562,2.8406620025634766,-0.0280351208872,0.030936474335,-0.0254383617744,-0.0276736942555,0.0366631680837,0.011902297849,-0.0104717322419,0.0238462105338,-0.00302371057213,0.04425162562735305,0.07213925819963245,1.3840568027390854
1765470130.1988494,2.860955238342285,-0.028581832482,0.0316718400454,-0.025447444663,-0.0277564260647,0.0370632660222,0.0112847929092,-0.00905996555395,0.0229619913853,-0.00260756562557,0.04425162562735305,0.07213925819963245,1.3840568027390854
1765470130.2200582,2.8821640014648438,-0.0291412091454,0.0324285778011,-0.0254628952519,-0.0278366998781,0.0374673681148,0.0106752383511,-0.00790236533806,0.0222369620401,-0.00226580281482,0.04425162562735305,0.07213925819963245,1.3840568027390854
1765470130.2419515,2.904057264328003,-0.029700285487,0.0331897300932,-0.0254872489853,-0.0279113331429,0.0378656993456,0.0100802099706,-0.00695517093947,0.0216437142805,-0.0019851639103,0.04425162562735305,0.07213925819963245,1.3840568027390854
1765470130.2592895,2.9213953018188477,-0.0302564805246,0.0339519472214,-0.02570254623,-0.0279810060538,0.0382573544346,0.00906779841776,-0.00618150347493,0.0211591500869,-0.0017892754281,0.04425162562735305,0.07213925819963245,1.3840568027390854
1765470130.2803133,2.9424190521240234,-0.0308157454681,0.0347234901265,-0.02589556608,-0.0280480526558,0.0386476902232,0.0081575378687,-0.00554905847601,0.0207630364916,-0.00162110519973,0.04425162562735305,0.07213925819963245,1.3840568027390854
1765470130.2999492,2.962054967880249,-0.031383016266,0.035511429856,-0.0260680461821,-0.0281138953799,0.0390407919055,0.00733651623202,-0.00503108820547,0.0204386208247,-0.00147632025002,0.04425162562735305,0.07213925819963245,1.3840568027390854
1765470130.3202686,2.982374429702759,-0.0319481884377,0.0363019761019,-0.0262240753427,-0.0281770298094,0.0394296254028,0.00659803743261,-0.00460758075709,0.0201733692087,-0.00135145088378,0.04425162562735305,0.07213925819963245,1.3840568027390854
1765470130.3409438,3.003049612045288,-0.0325133185548,0.0370980337803,-0.0263645175547,-0.0282383220862,0.0398161180797,0.00593397262505,-0.00426140798286,0.0199565539245,-0.00124352401563,0.04425162562735305,0.07213925819963245,1.3840568027390854
1765470130.3648818,3.0269875526428223,-0.0330806714182,0.0379028735786,-0.0264905700366,-0.0282984533358,0.0402021762194,0.0053362522907,-0.00397829239749,0.0197792326829,-0.00115002311652,0.04425162562735305,0.07213925819963245,1.3840568027390854
1765470130.3805213,3.0426270961761475,-0.0336494041387,0.0387324092922,-0.0266026590023,-0.0283532639049,0.0407499374186,0.00482334216822,-0.00369908010466,0.0214179227854,-0.000753222320757,0.04455964517455593,0.07208135941305845,1.3842785108998346
1765470130.4007516,3.0628573894500732,-0.0342187576059,0.039569282835,-0.0279875114158,-0.0284069542057,0.0413029161614,0.00131552455902,-0.00347069330044,0.0227583193409,-0.000666720323607,0.04455964517455593,0.07208135941305845,1.3842785108998346
1765470130.4206781,3.0827839374542236,-0.0347930017968,0.0404204255654,-0.0291825669048,-0.0284602355925,0.0418635594262,-0.00157385919086,-0.00328367329233,0.0238559351841,-0.000546737851597,0.04455964517455593,0.07208135941305845,1.3842785108998346
1765470130.4411502,3.1032559871673584,-0.0353652669172,0.0412763630078,-0.0302106201737,-0.0285124430015,0.042425467438,-0.00392736587671,-0.00313071409941,0.024753648938,-0.000406059278109,0.04455964517455593,0.07208135941305845,1.3842785108998346
1765470130.4612508,3.123356580734253,-0.0359394480658,0.0421432580546,-0.0310931525815,-0.0285641699655,0.0429911617209,-0.0058216892261,-0.00300556229142,0.0254881618312,-0.000254514846086,0.04455964517455593,0.07208135941305845,1.3842785108998346
1765470130.4823303,3.1444361209869385,-0.0365196109069,0.0430277154561,-0.0318503340415,-0.0286159308583,0.0435638237458,-0.00732430258826,-0.00290303034761,0.0260899192961,-9.9254611783e-05,0.04455964517455593,0.07208135941305845,1.3842785108998346
1765470130.501728,3.1638338565826416,-0.0370951856536,0.0439140229118,-0.0324951218347,-0.0286667213178,0.0441334719829,-0.00848992083016,-0.00281920779347,0.0265818718117,5.44028112623e-05,0.04455964517455593,0.07208135941305845,1.3842785108998346
1765470130.5218654,3.1839711666107178,-0.0376723574811,0.0448117716737,-0.0330434883118,-0.0287172568825,0.0447052948327,-0.0093695336751,-0.00275064538621,0.0269842628992,0.00020275202917,0.04455964517455593,0.07208135941305845,1.3842785108998346
1765470130.5420282,3.204133987426758,-0.0382505377948,0.0457202711691,-0.034241623675,-0.0287675354765,0.0452784613182,-0.0117494944136,-0.00269455516483,0.0273134550336,0.00020493766541,0.04455964517455593,0.07208135941305845,1.3842785108998346
1765470130.562086,3.224191904067993,-0.03882959275,0.0466394769001,-0.0352639271008,-0.028817591736,0.0458526036413,-0.0135983207443,-0.00264866394627,0.0275827894704,0.0002488961155,0.04455964517455593,0.07208135941305845,1.3842785108998346
1765470130.5823524,3.2444581985473633,-0.0394281173151,0.0475511375965,-0.0361396333308,-0.0290389208212,0.0462260972167,-0.0151172747079,-0.00449691336243,0.0255725893684,-0.00119474761055,0.04411559635229884,0.07209375975688413,1.3843164609453682
1765470130.6024184,3.264524221420288,-0.0400275906723,0.0484719814869,-0.0368823262015,-0.0292668621757,0.0465915566139,-0.0162582165467,-0.00600930729044,0.0239276736975,-0.00234553379308,0.04411559635229884,0.07209375975688413,1.3843164609453682
1765470130.6224642,3.2845699787139893,-0.0406294660346,0.0494026383647,-0.0375101337793,-0.0295002904136,0.0469510773983,-0.0170793761052,-0.00724696957338,0.0225815627097,-0.00326148275536,0.04411559635229884,0.07209375975688413,1.3843164609453682
1765470130.6436448,3.305750608444214,-0.041235419926,0.0503444009369,-0.0380391232645,-0.0297385292247,0.0473065862851,-0.017631169588,-0.00826014815887,0.0214796055398,-0.00398957777223,0.04411559635229884,0.07209375975688413,1.3843164609453682
1765470130.662922,3.3250277042388916,-0.0418445355682,0.0512946850161,-0.0384819715749,-0.0299804568952,0.0476579160297,-0.0179570078889,-0.00908941380665,0.020577676463,-0.0045673104844,0.04411559635229884,0.07209375975688413,1.3843164609453682
1765470130.6830602,3.345165967941284,-0.0424560508286,0.0522513590958,-0.0368330218805,-0.0302250339692,0.0480050859191,-0.0133036368511,-0.00976789436611,0.0198397448408,-0.00464471799126,0.04411559635229884,0.07209375975688413,1.3843164609453682
1765470130.7031972,3.3653030395507812,-0.043071560842,0.0532162054443,-0.0354030378792,-0.0304720884471,0.0483496266926,-0.00939331944059,-0.0103230853801,0.0192359058658,-0.00476699618186,0.04411559635229884,0.07209375975688413,1.3843164609453682
1765470130.723324,3.385429859161377,-0.0436913268579,0.0541890221696,-0.0341648414232,-0.0307211900018,0.0486920354366,-0.00612630705598,-0.0107774348595,0.0187417445466,-0.00491806214677,0.04411559635229884,0.07209375975688413,1.3843164609453682
1765470130.7435358,3.405641555786133,-0.0443157093728,0.0551698764884,-0.0330945360807,-0.0309720384017,0.0490328057407,-0.00341528713092,-0.011149296635,0.0183372988194,-0.00508575767742,0.04411559635229884,0.07209375975688413,1.3843164609453682
1765470130.7636487,3.4257545471191406,-0.0449442659807,0.0561576560661,-0.032171200174,-0.0312241227208,0.0493719049913,-0.00118426189265,-0.0114536194143,0.0180063101138,-0.00526101926045,0.04411559635229884,0.07209375975688413,1.3843164609453682
1765470130.7857141,3.447819948196411,-0.0455623282619,0.0571698970347,-0.0313552069216,-0.0313289954197,0.0498822718203,0.00109142235805,-0.0100698726473,0.0196359372921,0.000273903171338,0.04404948753942683,0.07202646500508919,1.3845622707139824
1765470130.8042238,3.466329574584961,-0.0461920443321,0.0582020749355,-0.0306492152372,-0.0314310667577,0.0504034693434,0.00303387111342,-0.00893539872575,0.0209719978919,0.00478323323649,0.04404948753942683,0.07202646500508919,1.3845622707139824
1765470130.824421,3.4865267276763916,-0.0468189161254,0.059232336626,-0.0316923949004,-0.0315269167447,0.0509254383194,0.000759015822865,-0.00800759332158,0.0220646666799,0.00813460121669,0.04404948753942683,0.07202646500508919,1.3845622707139824
1765470130.8458133,3.5079190731048584,-0.0474490554164,0.0602714835243,-0.0325874997998,-0.031619384784,0.0514513676604,-0.00103267136638,-0.00724864741161,0.0229584710314,0.0109131726735,0.04404948753942683,0.07202646500508919,1.3845622707139824
1765470130.864705,3.526810884475708,-0.0480862527367,0.0613266144627,-0.0333537474125,-0.0317099689976,0.0519835704421,-0.00241196084709,-0.00662714804947,0.0236904057148,0.0132201691645,0.04404948753942683,0.07202646500508919,1.3845622707139824
1765470130.8847702,3.5468759536743164,-0.0487213465156,0.0623834764872,-0.0340059277105,-0.0317972230133,0.0525148969019,-0.00344094621734,-0.00611899022027,0.0242888590077,0.0151335688575,0.04404948753942683,0.07202646500508919,1.3845622707139824
1765470130.9047647,3.5668704509735107,-0.0493629945333,0.0634568984993,-0.0345596352692,-0.0318833937792,0.0530515014078,-0.00417107874073,-0.00570297553188,0.0247787960821,0.0167229099198,0.04404948753942683,0.07202646500508919,1.3845622707139824
1765470130.9253263,3.5874321460723877,-0.050002642205,0.0645331832252,-0.035026194844,-0.0319672496106,0.0535865445383,-0.00465186573697,-0.00536283673738,0.0251793747408,0.0180417744882,0.04404948753942683,0.07202646500508919,1.3845622707139824
1765470130.9469008,3.609006643295288,-0.0506496504278,0.065628382646,-0.0354184403603,-0.0320507246697,0.0541271197129,-0.00491974095113,-0.0050843044851,0.0255073998818,0.0191379732558,0.04404948753942683,0.07202646500508919,1.3845622707139824
1765470130.9683948,3.630500555038452,-0.0512934787078,0.0667250903468,-0.0357444932968,-0.0321323297501,0.054664723426,-0.0050149909363,-0.00485659126452,0.0257755758675,0.0200477265944,0.04404948753942683,0.07202646500508919,1.3845622707139824
1765470130.9865932,3.6486990451812744,-0.0519646373607,0.0677507155847,-0.0356642861506,-0.0324601715957,0.0543890087378,-0.0044635709511,-0.0073879909437,0.017031523421,0.0162628975103,0.0445564077693558,0.07195563324247149,1.384829785245481
1765470131.0064447,3.668550491333008,-0.0526388564323,0.0687838966563,-0.0355874839228,-0.0327971661795,0.0540819015209,-0.0039716877698,-0.00945904379827,0.0098776176475,0.013162968561,0.0445564077693558,0.07195563324247149,1.384829785245481
1765470131.026124,3.68822979927063,-0.0533171828167,0.0698219533288,-0.0355147937101,-0.0331417592048,0.0537490040191,-0.0035335676272,-0.0111537991549,0.00402353231921,0.0106231034704,0.0445564077693558,0.07195563324247149,1.384829785245481
1765470131.0461812,3.708287000656128,-0.053999708067,0.0708614525212,-0.0354465955128,-0.03349241857,0.05339481716,-0.00314422086912,-0.0125405959883,-0.000766791525921,0.00854180617134,0.0445564077693558,0.07195563324247149,1.384829785245481
1765470131.0662634,3.7283692359924316,-0.054686870475,0.071900211762,-0.0353831220382,-0.0338479554265,0.0530232851866,-0.00279881056298,-0.0136753594123,-0.00468653244054,0.00683602144606,0.0445564077693558,0.07195563324247149,1.384829785245481
1765470131.0864363,3.748542070388794,-0.0553803026209,0.0729384256282,-0.0353244962576,-0.0342079219866,0.0526374157494,-0.00249253748295,-0.014604127274,-0.0078947160238,0.00543738052996,0.0445564077693558,0.07195563324247149,1.384829785245481
1765470131.1066082,3.76871395111084,-0.0560794001412,0.0739732060636,-0.0352705909358,-0.0345711821506,0.0522398853655,-0.00222159238079,-0.0153642298911,-0.0105202900109,0.00429043423174,0.0445564077693558,0.07195563324247149,1.384829785245481
1765470131.1252267,3.787332534790039,-0.0567839047547,0.0750026311939,-0.0341214217196,-0.0349368532182,0.0518330532271,0.000630236213761,-0.0159861941446,-0.0126687014596,0.00355710728821,0.0445564077693558,0.07195563324247149,1.384829785245481
1765470131.1528277,3.8149335384368896,-0.0574963470526,0.0760291853099,-0.0331305300447,-0.0353054637313,0.0514178632216,0.00296495787538,-0.0164953319091,-0.0144273835641,0.00291601429242,0.0445564077693558,0.07195563324247149,1.384829785245481
1765470131.168289,3.830394744873047,-0.0582140247352,0.0770478556723,-0.0322785334323,-0.0356752643742,0.0509968274249,0.0048537983489,-0.0169119400113,-0.0158664463583,0.00235628864168,0.0445564077693558,0.07195563324247149,1.384829785245481
1765470131.1898072,3.8519129753112793,-0.0589175891149,0.078132725124,-0.0315173327872,-0.0358345411487,0.0512829230067,0.00701533278272,-0.0149154595188,-0.00919726729649,0.0100315054651,0.044634034753942405,0.07199012950096642,1.3849064842848753
1765470131.207273,3.8693788051605225,-0.0596264810793,0.0792124645521,-0.0308609665863,-0.0359862326042,0.0515934562762,0.00887598346198,-0.0132817560455,-0.0037399332339,0.0162854787457,0.044634034753942405,0.07199012950096642,1.3849064842848753
1765470131.2295344,3.8916401863098145,-0.0603413400966,0.0802912215185,-0.0302945751483,-0.0361321936833,0.0519237225497,0.0104757090294,-0.011944637351,0.000726668886336,0.0213811518347,0.044634034753942405,0.07199012950096642,1.3849064842848753
1765470131.2478745,3.909980297088623,-0.061065538619,0.0813764985852,-0.0298044685999,-0.0362746577993,0.0522706490815,0.0118515263618,-0.0108492654026,0.00438572375345,0.0255357103556,0.044634034753942405,0.07199012950096642,1.3849064842848753
1765470131.2679439,3.9300496578216553,-0.0617894383828,0.082456586814,-0.0321334709406,-0.0364116049031,0.0526306775428,0.00649299656258,-0.00995324450256,0.00737885283625,0.0283986145579,0.044634034753942405,0.07199012950096642,1.3849064842848753
1765470131.2879057,3.9500114917755127,-0.0625178408771,0.0835401704336,-0.0341344751484,-0.0365454270815,0.0530016290332,0.00218904831263,-0.00922008135493,0.00982796081975,0.0308237772666,0.044634034753942405,0.07199012950096642,1.3849064842848753
1765470131.3078892,3.9699950218200684,-0.0632496072548,0.0846270569835,-0.0358488172878,-0.0366764871561,0.0533813616719,-0.00121215209559,-0.00862017191542,0.0118319390645,0.0328789210562,0.044634034753942405,0.07199012950096642,1.3849064842848753
1765470131.3281822,3.990288019180298,-0.0639852128834,0.0857191285922,-0.037313022178,-0.0368054463899,0.0537684704959,-0.00384254555096,-0.00812921464582,0.0134719660795,0.0346211951033,0.044634034753942405,0.07199012950096642,1.3849064842848753
1765470131.3483167,4.010422468185425,-0.0647242377388,0.086816751797,-0.0385591438779,-0.0369326408521,0.0541615907183,-0.00581730792988,-0.00772740053796,0.0148142132213,0.036098489677,0.044634034753942405,0.07199012950096642,1.3849064842848753
1765470131.3688471,4.0309529304504395,-0.0654975847896,0.0879832212067,-0.0396500473067,-0.0369999110984,0.0546466623976,-0.00770807532116,-0.00666774722724,0.0167050088164,0.0311931081414,0.044303216051094926,0.07200962883357284,1.3851192708559725
1765470131.3896463,4.051752090454102,-0.0662358235422,0.0891007949783,-0.0405666505132,-0.0370556177539,0.0551230373789,-0.00917564506352,-0.00580409362521,0.0182460717374,0.0272334221961,0.044303216051094926,0.07200962883357284,1.3851192708559725
1765470131.40979,4.0718958377838135,-0.0669761782187,0.0902252542373,-0.0383947451,-0.0371082916868,0.0556046055872,-0.00326706449627,-0.00509924600797,0.0195037687185,0.0245902991632,0.044303216051094926,0.07200962883357284,1.3851192708559725
1765470131.4317756,4.093881368637085,-0.0677218236269,0.0913623599328,-0.0365160355053,-0.0371589160525,0.0560922859298,0.00164828371399,-0.00452308632791,0.0205318409889,0.0223516113656,0.044303216051094926,0.07200962883357284,1.3851192708559725
1765470131.4499185,4.112024307250977,-0.0684663217351,0.0925032249537,-0.0348943256188,-0.0372071117122,0.0565819813465,0.00570152707851,-0.00405226084494,0.0213719598658,0.0204546740399,0.044303216051094926,0.07200962883357284,1.3851192708559725
1765470131.4701338,4.132239580154419,-0.0692133897451,0.0936540960581,-0.0334966597176,-0.03725374128,0.0570751668023,0.00901699130846,-0.00366724034269,0.0220589723653,0.0188454635105,0.044303216051094926,0.07200962883357284,1.3851192708559725
1765470131.4904847,4.15259051322937,-0.0699696034905,0.094825684784,-0.0322915563893,-0.0372997018317,0.0575754038811,0.0117050865779,-0.00335183220042,0.0226217718394,0.0174775617102,0.044303216051094926,0.07200962883357284,1.3851192708559725
1765470131.5101788,4.1722846031188965,-0.0707184772489,0.0959930548153,-0.031260539527,-0.0373436996214,0.058072453392,0.0138433328618,-0.00309406570674,0.0230817182633,0.0163167430811,0.044303216051094926,0.07200962883357284,1.3851192708559725
1765470131.5313435,4.193449258804321,-0.0714691333961,0.0971705585416,-0.0303789644389,-0.0373868291632,0.0585714476885,0.0155167893456,-0.00288327832832,0.0234578373605,0.0153309285507,0.044303216051094926,0.07200962883357284,1.3851192708559725
1765470131.5509653,4.21307110786438,-0.0722208789436,0.0983574159101,-0.0327468077637,-0.0374292005197,0.0590717266613,0.00938781135809,-0.00271086205191,0.0237654888656,0.0139048700173,0.044303216051094926,0.07200962883357284,1.3851192708559725
1765470131.5703132,4.232419013977051,-0.0729873420605,0.0995389850575,-0.0347971687948,-0.037602252957,0.0594202809086,0.0041540068215,-0.00401353510804,0.022333989978,0.0108380582262,0.044109425308710426,0.071860217174041,1.3853491016580464
1765470131.591464,4.253569841384888,-0.0737547206332,0.100728637081,-0.0365642341093,-0.0377799166705,0.0597633023797,-0.000177474315917,-0.00507932462778,0.0211628008566,0.00840174242812,0.044109425308710426,0.071860217174041,1.3853491016580464
1765470131.6112013,4.2733070850372314,-0.074524733731,0.101927901883,-0.0380846305103,-0.0379614987211,0.0601024579853,-0.00373244402032,-0.00595153012866,0.0202043399454,0.0064705058627,0.044109425308710426,0.071860217174041,1.3853491016580464
1765470131.631202,4.293307781219482,-0.0752964704376,0.10313436612,-0.0393899477551,-0.0381461296342,0.0604378041173,-0.00661985695093,-0.00666523949186,0.0194200494017,0.00494394283364,0.044109425308710426,0.071860217174041,1.3853491016580464
1765470131.651661,4.313766717910767,-0.0760711408616,0.104349150019,-0.0405081695486,-0.0383333824823,0.0607704539368,-0.00893502331025,-0.00724933425687,0.0187781914908,0.00374060655691,0.044109425308710426,0.071860217174041,1.3853491016580464
1765470131.672287,4.334392786026001,-0.0768495882255,0.105572941069,-0.0414638759772,-0.0385229210416,0.0611011913822,-0.0107610096242,-0.00772744635666,0.0182527972364,0.00279488737171,0.044109425308710426,0.071860217174041,1.3853491016580464
1765470131.692407,4.354512691497803,-0.0776497159287,0.10683362525,-0.0398923732828,-0.0387180393699,0.0614386201374,-0.00648985454444,-0.00812016104107,0.0178212456423,0.00250396407187,0.044109425308710426,0.071860217174041,1.3853491016580464
1765470131.7131317,4.375237464904785,-0.0784339927982,0.108071226709,-0.0385300959143,-0.0389107104887,0.0617654625113,-0.00293612967063,-0.00844091413148,0.0174687721725,0.00220946746146,0.044109425308710426,0.071860217174041,1.3853491016580464
1765470131.7326968,4.394802570343018,-0.0792210712598,0.109314966768,-0.0373548563083,-0.0391043876185,0.0620907849222,1.29393671544e-06,-0.00870304041447,0.0171807233173,0.00191994067248,0.044109425308710426,0.071860217174041,1.3853491016580464
1765470131.7528665,4.414972305297852,-0.0800118204366,0.110565929855,-0.0363426384107,-0.0392990304434,0.0624151545353,0.00240932206811,-0.00891737314228,0.0169451944868,0.00164127290177,0.044109425308710426,0.071860217174041,1.3853491016580464
1765470131.7722921,4.43439793586731,-0.0808211793667,0.111844093608,-0.035460729023,-0.0396345823717,0.0629265676195,0.00461361393294,-0.0106322456819,0.0188153404879,0.00449578802576,0.04472244754094384,0.0717668650554553,1.3855906503689166
1765470131.7959137,4.458019495010376,-0.0816586007544,0.113167623936,-0.0346968195851,-0.0399832263061,0.0634565618195,0.00644764575971,-0.0120414827542,0.0203521772,0.00681073396363,0.04472244754094384,0.0717668650554553,1.3855906503689166
1765470131.8158073,4.47791314125061,-0.0824762269269,0.114460266151,-0.0340446966166,-0.0403301529968,0.0639802040056,0.00794783471674,-0.013191601794,0.0216064339878,0.00867286950433,0.04472244754094384,0.0717668650554553,1.3855906503689166
1765470131.8339636,4.496069431304932,-0.0832996001312,0.11576233036,-0.0334864377814,-0.0406812511837,0.0645084780276,0.00916561312968,-0.0141312253982,0.0226311359907,0.0101710883873,0.04472244754094384,0.0717668650554553,1.3855906503689166
1765470131.8541787,4.516284465789795,-0.0841286867012,0.117073567161,-0.0353969623876,-0.0410356764883,0.0650403855863,0.00447320669111,-0.0148993392677,0.0234687988772,0.0109254342511,0.04472244754094384,0.0717668650554553,1.3855906503689166
1765470131.8743231,4.536428928375244,-0.0849674493469,0.118400096167,-0.0370421617097,-0.0413941878335,0.0655773895462,0.000640046612061,-0.0155279078849,0.0241542813598,0.011610684466,0.04472244754094384,0.0717668650554553,1.3855906503689166
1765470131.8945456,4.55665135383606,-0.0858082317214,0.119729656564,-0.0384549171799,-0.041753378149,0.0661143885546,-0.00245368799013,-0.0160418424595,0.0247147502386,0.0122295737059,0.04472244754094384,0.0717668650554553,1.3855906503689166
1765470131.9145687,4.576674461364746,-0.0866555250403,0.121069260584,-0.0396649395208,-0.0421144070815,0.0666533995438,-0.00491427978893,-0.0164622015658,0.0251731708405,0.0127858619415,0.04472244754094384,0.0717668650554553,1.3855906503689166
1765470131.9345822,4.5966880321502686,-0.0875093839576,0.122418908533,-0.0406984666319,-0.0424769030765,0.0671939966591,-0.00683468424024,-0.0168060988378,0.0255482063567,0.0132836813127,0.04472244754094384,0.0717668650554553,1.3855906503689166
1765470131.954846,4.6169517040252686,-0.0883703784321,0.123779431592,-0.0415785292353,-0.0428407672012,0.0677361443119,-0.00829543855416,-0.017087505588,0.0258550931348,0.0137273678228,0.04472244754094384,0.0717668650554553,1.3855906503689166
1765470131.97418,4.636285781860352,-0.0892083050832,0.125133491992,-0.0423394085335,-0.0429044400836,0.0681048615319,-0.00967208109588,-0.0140013233833,0.0241825929177,0.0103113497863,0.04478515666223679,0.07180314230292924,1.3857786695418761
1765470131.9949453,4.657051086425781,-0.0900520387776,0.126497430238,-0.0407850702928,-0.0429569261246,0.068467516247,-0.00550627322977,-0.0114755240872,0.0228137820081,0.00795676037768,0.04478515666223679,0.07180314230292924,1.3857786695418761
1765470132.0151606,4.677266359329224,-0.0909054760193,0.127878589366,-0.0394385458488,-0.0430014018012,0.0688277369318,-0.00204690523297,-0.00940659078952,0.0216925613024,0.00597269715023,0.04478515666223679,0.07180314230292924,1.3857786695418761
1765470132.0354838,4.697589635848999,-0.0917573479972,0.129259869526,-0.0382752792099,-0.0430369833278,0.0691810248145,0.000795955243706,-0.00771426168401,0.0207754343771,0.00430159433693,0.04478515666223679,0.07180314230292924,1.3857786695418761
1765470132.0555003,4.717606067657471,-0.0926121825163,0.130649224423,-0.0372731011319,-0.0430664315165,0.0695308978467,0.00310915167035,-0.00632975311808,0.0200251251849,0.00289299243415,0.04478515666223679,0.07180314230292924,1.3857786695418761
1765470132.0759635,4.738069295883179,-0.0934788587807,0.132061666059,-0.0364099833764,-0.0430920826439,0.0698822621254,0.00497083201752,-0.00519510547863,0.0194102235694,0.00170317689792,0.04478515666223679,0.07180314230292924,1.3857786695418761
1765470132.0962124,4.758318185806274,-0.0943385535967,0.133467242284,-0.0356713880831,-0.0431123395744,0.0702271818182,0.00644079497807,-0.00426738705036,0.0189074634698,0.000699705297648,0.04478515666223679,0.07180314230292924,1.3857786695418761
1765470132.1180236,4.780129432678223,-0.0952005117455,0.134881305203,-0.0350406353041,-0.0431293158647,0.0705705135406,0.00757749326615,-0.00350852779739,0.0184962135237,-0.00014722023197,0.04478515666223679,0.07180314230292924,1.3857786695418761
1765470132.1362762,4.798382043838501,-0.0960646649955,0.13630410129,-0.03395347205,-0.0431436065837,0.0709126747357,0.00973799425619,-0.00288759630858,0.0181597110164,-0.000758643821244,0.04478515666223679,0.07180314230292924,1.3857786695418761
1765470132.1565013,4.8186070919036865,-0.0969289039501,0.137732450426,-0.0330256494126,-0.0431555718348,0.0712531483821,0.0114131506335,-0.00237959067796,0.0178844066206,-0.00129716985475,0.04478515666223679,0.07180314230292924,1.3857786695418761
1765470132.1759508,4.838056564331055,-0.0978176461781,0.139138055278,-0.0322307532678,-0.0433892603616,0.0712800844651,0.0127896664049,-0.00442434875755,0.0142141358066,-0.000349864621921,0.044343671132528906,0.07181074895679278,1.3858966475781667
1765470132.196739,4.858844757080078,-0.0987072109734,0.140548110249,-0.0315563773973,-0.043630289417,0.0712933902701,0.0138210115855,-0.00609750589988,0.0112108759649,0.000397555858831,0.044343671132528906,0.07181074895679278,1.3858966475781667
1765470132.217614,4.8797197341918945,-0.0996001499823,0.141964411642,-0.0309859607637,-0.0438775314328,0.0712960352802,0.0145603854717,-0.00746693789432,0.00875279237493,0.000985863047687,0.044343671132528906,0.07181074895679278,1.3858966475781667
1765470132.2369661,4.899071931838989,-0.100494953823,0.143382557875,-0.03050619701,-0.044129572101,0.0712895069466,0.0150538244439,-0.0085875347448,0.00674135935725,0.00144755100801,0.044343671132528906,0.07181074895679278,1.3858966475781667
1765470132.2573395,4.919445276260376,-0.101395284656,0.144806882189,-0.0301038928686,-0.044386106621,0.0712759582038,0.0153411361315,-0.00950490576311,0.00509470975715,0.00180898294689,0.044343671132528906,0.07181074895679278,1.3858966475781667
1765470132.277391,4.939496755599976,-0.102297365126,0.146230006579,-0.0306862983638,-0.0446455596353,0.0712561355271,0.0132794781041,-0.0102555448082,0.003747338346,0.00191827310615,0.044343671132528906,0.07181074895679278,1.3858966475781667
1765470132.297294,4.959399700164795,-0.103204564408,0.147656283137,-0.0311982154891,-0.0449079696805,0.0712314963377,0.0114839000023,-0.0108699161535,0.00264456279531,0.00202879282529,0.044343671132528906,0.07181074895679278,1.3858966475781667
1765470132.317528,4.979633808135986,-0.104115603677,0.149082808672,-0.0316481966271,-0.0451724913139,0.0712027975207,0.00992243596292,-0.0113726997762,0.00174208338976,0.00213777518137,0.044343671132528906,0.07181074895679278,1.3858966475781667
1765470132.3383286,5.000434398651123,-0.1050308009,0.150509396724,-0.0320433966181,-0.0454387332674,0.0711707994951,0.00856672104654,-0.0117841479057,0.00100354807047,0.00224324335395,0.044343671132528906,0.07181074895679278,1.3858966475781667
1765470132.3588815,5.020987272262573,-0.10596142245,0.151953026674,-0.0323894566754,-0.0457092727467,0.071136258957,0.00738912745508,-0.0121214528783,0.000398097181826,0.00234377379961,0.044343671132528906,0.07181074895679278,1.3858966475781667
1765470132.378021,5.040126800537109,-0.10688568251,0.153449722023,-0.0326956587194,-0.04596612379,0.0717789294614,0.00634059340175,-0.0122617675644,0.00738626524961,0.00206464615093,0.044497023438236236,0.07178619794049361,1.3860955857115955
1765470132.3981137,5.0602195262908936,-0.107815240256,0.154949642031,-0.0329639584836,-0.0462235702721,0.0724469398351,0.00543030866227,-0.0123765454595,0.013102610734,0.00184738650777,0.044497023438236236,0.07178619794049361,1.3860955857115955
1765470132.4179633,5.080069065093994,-0.10874914048,0.156453591562,-0.0328322057978,-0.0464812525299,0.0731354666877,0.0055125373753,-0.0124704395219,0.0177788674182,0.00174849304311,0.044497023438236236,0.07178619794049361,1.3860955857115955
1765470132.4383843,5.100490093231201,-0.109688124122,0.157964609555,-0.0327226669091,-0.0467392831785,0.0738409131237,0.00553740116504,-0.0125472629635,0.0216049467557,0.00166306296343,0.044497023438236236,0.07178619794049361,1.3860955857115955
1765470132.4597204,5.121826171875,-0.110634890383,0.159488512822,-0.0326320554371,-0.0469983154788,0.0745615808175,0.00551487963866,-0.0126101529314,0.0247370897833,0.0015893895554,0.044497023438236236,0.07178619794049361,1.3860955857115955
1765470132.479288,5.1413938999176025,-0.111584383446,0.161018555551,-0.032558254314,-0.0472569356339,0.0752925031883,0.00545360267169,-0.0126616089389,0.0272997811042,0.0015260682292,0.044497023438236236,0.07178619794049361,1.3860955857115955
1765470132.49886,5.16096568107605,-0.112538760166,0.162559170072,-0.0324986806206,-0.0475156760505,0.0760325794015,0.00536109724262,-0.0127037123877,0.0293966818975,0.00147180157016,0.044497023438236236,0.07178619794049361,1.3860955857115955
1765470132.5190127,5.181118488311768,-0.113498421204,0.164111836738,-0.0324512680213,-0.0477746056218,0.0767803501572,0.00524373097523,-0.0127381669671,0.0311126419182,0.00142544021322,0.044497023438236236,0.07178619794049361,1.3860955857115955
1765470132.5391076,5.201213359832764,-0.114462970789,0.165676607774,-0.0324142862252,-0.0480335874782,0.0775341769664,0.00510695121869,-0.0127663623922,0.0325168738997,0.00138597846505,0.044497023438236236,0.07178619794049361,1.3860955857115955
1765470132.5592706,5.221376419067383,-0.115434730442,0.16725780342,-0.032386011904,-0.0482932111272,0.0782945082911,0.00495530633518,-0.0127894441868,0.033666428976,0.00135250398156,0.044497023438236236,0.07178619794049361,1.3860955857115955
1765470132.581496,5.2436017990112305,-0.116403129173,0.168829360945,-0.0323641805271,-0.048491597472,0.0788658491885,0.00482100380946,-0.0121401210871,0.0324980614594,0.0016757414662,0.0447858058077525,0.07167874771288732,1.3863146307112546
1765470132.600162,5.262267827987671,-0.117377537757,0.170415866692,-0.0323485581618,-0.0486878914854,0.0794336589048,0.00468031566204,-0.0116086837216,0.0315418130904,0.00193967006686,0.0447858058077525,0.07167874771288732,1.3863146307112546
1765470132.6199248,5.2820305824279785,-0.118355522902,0.17201331884,-0.0323382732867,-0.0488819759242,0.0799972413345,0.00453566470704,-0.0111738109515,0.0307593194155,0.00215523696907,0.0447858058077525,0.07167874771288732,1.3863146307112546
1765470132.6398385,5.301944255828857,-0.119337990445,0.173623158569,-0.0323323230545,-0.049074471397,0.0805579519386,0.00438907738143,-0.010817928476,0.0301189579002,0.002331418613,0.0447858058077525,0.07167874771288732,1.3863146307112546
1765470132.6607714,5.3228771686553955,-0.120349039173,0.175285043134,-0.0323284775798,-0.0492708909808,0.0811309533262,0.00424171676756,-0.0105256153941,0.029592980756,0.00247590978655,0.0447858058077525,0.07167874771288732,1.3863146307112546
1765470132.6822903,5.344396114349365,-0.121341568442,0.176921525798,-0.0323294491405,-0.0494612395589,0.0816880802903,0.00409475897589,-0.0102868036271,0.0291632718617,0.0025940222018,0.0447858058077525,0.07167874771288732,1.3863146307112546
1765470132.7010567,5.363162517547607,-0.122337430649,0.178568451065,-0.0323327271292,-0.0496505580402,0.082243170856,0.00395027140681,-0.0100916122109,0.028812051783,0.00269071685316,0.0447858058077525,0.07167874771288732,1.3863146307112546
1765470132.722127,5.384232759475708,-0.123339445822,0.18023048017,-0.0323376945934,-0.0498395913203,0.0827981876637,0.00380904360224,-0.00993195189924,0.0285247650348,0.00277002348111,0.0447858058077525,0.07167874771288732,1.3863146307112546
1765470132.7411351,5.403240919113159,-0.124343205366,0.181900288766,-0.0323442485245,-0.0500275905698,0.0833508536533,0.00367163403788,-0.00980138094152,0.0282898205739,0.00283516413337,0.0447858058077525,0.07167874771288732,1.3863146307112546
1765470132.7612834,5.423389196395874,-0.125351502335,0.183582503746,-0.0323518688876,-0.0502152312419,0.0839029938129,0.00353861840082,-0.00969456059601,0.0280976120696,0.00288877789928,0.0447858058077525,0.07167874771288732,1.3863146307112546
1765470132.7815123,5.443618059158325,-0.126361781462,0.185257634137,-0.0323614492519,-0.0503791719021,0.084264752695,0.00338578012453,-0.0093497032061,0.0258502188402,0.0026272043906,0.04468808444050341,0.07170198379339826,1.3865054462033588
1765470132.8015974,5.463703155517578,-0.127375204881,0.186942231645,-0.0323717243448,-0.050541741755,0.0846180382082,0.00323692046507,-0.0090675273735,0.0240113136166,0.00241358657648,0.04468808444050341,0.07170198379339826,1.3865054462033588
1765470132.8240192,5.4861249923706055,-0.128399688653,0.188648994015,-0.0323821890765,-0.0507045879849,0.0849680228709,0.00309250704785,-0.00883637035112,0.0225048917094,0.00223899486564,0.04468808444050341,0.07170198379339826,1.3865054462033588
1765470132.8447785,5.506884336471558,-0.129426027701,0.190362053959,-0.0323932123972,-0.0508662467142,0.0853114982282,0.00295271496807,-0.00864715668886,0.0212718095256,0.0020965214357,0.04468808444050341,0.07170198379339826,1.3865054462033588
1765470132.8626673,5.524773120880127,-0.130471038075,0.192109253743,-0.0360855421162,-0.0510297279013,0.085656454018,-0.00592480008912,-0.00849197089921,0.0202604828057,0.00128359682629,0.04468808444050341,0.07170198379339826,1.3865054462033588
1765470132.8827949,5.54490065574646,-0.131498624375,0.193829707348,-0.039256660993,-0.051189117541,0.0859891399304,-0.0131431659044,-0.00836524740344,0.0194346413572,0.000752092011404,0.04468808444050341,0.07170198379339826,1.3865054462033588
1765470132.9033391,5.5654449462890625,-0.132529850169,0.195558485281,-0.0419745304979,-0.0513481001905,0.0863190062605,-0.0189436518906,-0.00826168301135,0.0187597249413,0.000430548491282,0.04468808444050341,0.07170198379339826,1.3865054462033588
1765470132.9226542,5.584759950637817,-0.133567805929,0.197300578206,-0.0443006353672,-0.0515072531557,0.086647682451,-0.0235358101397,-0.0081769626117,0.0182076125084,0.000263620757744,0.04468808444050341,0.07170198379339826,1.3865054462033588
1765470132.9432929,5.605398654937744,-0.134606464066,0.199045680611,-0.0462833053363,-0.0516656816695,0.0869734273501,-0.0270963453564,-0.0081076790523,0.0177561000663,0.000209121350141,0.04468808444050341,0.07170198379339826,1.3865054462033588
1765470132.9758244,5.637930154800415,-0.13567487077,0.200842574988,-0.0479843181752,-0.0518279807808,0.0873064893945,-0.0297847191361,-0.00805079235784,0.0173853764694,0.000233904429506,0.04468808444050341,0.07170198379339826,1.3865054462033588
1765470132.983705,5.645810842514038,-0.136720146652,0.202615851022,-0.0494121991404,-0.0519839824091,0.0877620033456,-0.0317502167702,-0.00798250674139,0.0185420496909,9.09202477822e-06,0.04451857839830906,0.07170435567124411,1.386676687461451
1765470133.004272,5.666377782821655,-0.137767883412,0.204395272606,-0.0495118598051,-0.0521396240216,0.0882213060449,-0.0304709206678,-0.00792671684191,0.0194870610434,8.36517645712e-05,0.04451857839830906,0.07170435567124411,1.386676687461451
1765470133.0244098,5.68651556968689,-0.138819085472,0.206182970644,-0.0495730529371,-0.0522951066303,0.0886840352352,-0.0291605426798,-0.00788110773157,0.0202596225188,0.000147061760256,0.04451857839830906,0.07170435567124411,1.386676687461451
1765470133.044456,5.706561803817749,-0.139872635531,0.207977404388,-0.0496016275416,-0.0524502998644,0.0891491733119,-0.0278359766,-0.00784381212271,0.0208913636422,0.000200024044512,0.04451857839830906,0.07170435567124411,1.386676687461451
1765470133.0660307,5.7281365394592285,-0.140929827404,0.209781058167,-0.0496036698059,-0.0526054298108,0.089616739757,-0.0265106491147,-0.00781330304009,0.0214081494707,0.00024338915267,0.04451857839830906,0.07170435567124411,1.386676687461451
1765470133.0851748,5.747280597686768,-0.141989520376,0.21159222652,-0.0495834226226,-0.0527603521167,0.0900858804867,-0.0251961407964,-0.00778834351239,0.0218309327567,0.000277983920738,0.04451857839830906,0.07170435567124411,1.386676687461451
1765470133.105418,5.767523765563965,-0.143053313039,0.213413831039,-0.0495455742071,-0.0529153242658,0.0905569263024,-0.0239012287609,-0.00776791793786,0.022176916528,0.000304713655946,0.04451857839830906,0.07170435567124411,1.386676687461451
1765470133.1250591,5.787164926528931,-0.144121357061,0.215246301061,-0.0494935050016,-0.0530703835651,0.0910296851702,-0.0226330306257,-0.00775119947997,0.0224601063643,0.000324446305116,0.04451857839830906,0.07170435567124411,1.386676687461451
1765470133.145166,5.807271718978882,-0.145190761848,0.217084809591,-0.0492459719257,-0.0532251216398,0.0915027163693,-0.0209628754849,-0.00773751949828,0.0226918282014,0.0003724776026,0.04451857839830906,0.07170435567124411,1.386676687461451
1765470133.168211,5.830316781997681,-0.146263300572,0.218932497216,-0.0490153467335,-0.0533798104109,0.0919765827108,-0.0194123104806,-0.00772632466653,0.0228814546963,0.000402255903664,0.04451857839830906,0.07170435567124411,1.386676687461451
1765470133.1854005,5.847506284713745,-0.147326912023,0.220796755191,-0.0488132391484,-0.0533974975263,0.0924935459348,-0.0182382569907,-0.00620652781796,0.0234950783173,-0.00289531170562,0.04435562206792064,0.07160718358096985,1.3868762913851524
1765470133.2062144,5.8683202266693115,-0.148407370658,0.222695371789,-0.0486290850973,-0.0534110502931,0.0930191214299,-0.0171748896501,-0.00496009767543,0.0239983291156,-0.00560726734633,0.04435562206792064,0.07160718358096985,1.3868762913851524
1765470133.2259612,5.888067007064819,-0.14947390869,0.224575984588,-0.048454926757,-0.0534183071718,0.0935394528205,-0.0162162876182,-0.00394128694646,0.0244096777306,-0.00783141984388,0.04435562206792064,0.07160718358096985,1.3868762913851524
1765470133.2461305,5.908236265182495,-0.150545262071,0.226472048233,-0.0482958927228,-0.0534221241338,0.0940627166708,-0.0153524546155,-0.00310778990282,0.0247462052569,-0.00965771624637,0.04435562206792064,0.07160718358096985,1.3868762913851524
1765470133.267039,5.929144859313965,-0.151615517978,0.228373941232,-0.0481497708164,-0.0534227670636,0.0945860966141,-0.0145741782812,-0.00242608417568,0.0250214464756,-0.0111575907619,0.04435562206792064,0.07160718358096985,1.3868762913851524
1765470133.288289,5.950394868850708,-0.152734799175,0.23037144432,-0.0476549335002,-0.0534227970185,0.0951330885255,-0.012994497486,-0.00186471335414,0.0252481020293,-0.012327248548,0.04435562206792064,0.07160718358096985,1.3868762913851524
1765470133.3074806,5.969586372375488,-0.153806279124,0.232293119381,-0.0472132424954,-0.0534187034325,0.0956580956952,-0.0116462288098,-0.00140711401735,0.0254328594607,-0.0132995402248,0.04435562206792064,0.07160718358096985,1.3868762913851524
1765470133.328395,5.9905006885528564,-0.154893880218,0.234253042562,-0.0468308371358,-0.0534133681915,0.096191160913,-0.0105055014014,-0.00103280311582,0.0255839888771,-0.0141107256691,0.04435562206792064,0.07160718358096985,1.3868762913851524
1765470133.348341,6.010446786880493,-0.155967746281,0.236197963972,-0.0464963846629,-0.0534063648867,0.096717999999,-0.00954252482057,-0.000727300748374,0.0257073365923,-0.0147869242393,0.04435562206792064,0.07160718358096985,1.3868762913851524
1765470133.3693588,6.031464576721191,-0.15712342722,0.238216583248,-0.0461975702598,-0.0537883916789,0.0971331623446,-0.00847391276406,-0.00475510158221,0.024354539507,-0.0120748179171,0.04429786892296875,0.0715635826404982,1.3871479338163404
1765470133.390284,6.052389860153198,-0.158240997769,0.240173128612,-0.0459314863873,-0.0541836596771,0.0975245357888,-0.00752293845382,-0.00803791325093,0.0232519581628,-0.00987554182838,0.04429786892296875,0.0715635826404982,1.3871479338163404
1765470133.4091582,6.071264028549194,-0.159384037913,0.242179377962,-0.0457008230002,-0.0545943112633,0.0979213846608,-0.00668343680132,-0.010725013641,0.0223494553516,-0.00808472394426,0.04429786892296875,0.0715635826404982,1.3871479338163404
1765470133.431072,6.093177795410156,-0.160508191651,0.244153232846,-0.0454969518408,-0.0550106272101,0.0983052742847,-0.00593963615973,-0.012915896302,0.0216136146781,-0.00663318472577,0.04429786892296875,0.0715635826404982,1.3871479338163404
1765470133.449398,6.111503839492798,-0.161634349806,0.24613035503,-0.0445818979553,-0.0554336506282,0.0986854447032,-0.00353507537066,-0.0147035789105,0.021013194766,-0.00531673329752,0.04429786892296875,0.0715635826404982,1.3871479338163404
1765470133.473417,6.135522842407227,-0.162902944968,0.248358335314,-0.0437850430438,-0.0559010658332,0.0991141629007,-0.00150952217644,-0.0161899165163,0.0205139860753,-0.00425237581077,0.04429786892296875,0.0715635826404982,1.3871479338163404
1765470133.4927394,6.154845237731934,-0.164042939754,0.250354377134,-0.043098417677,-0.0563370757439,0.0994902500421,0.000155999506299,-0.0173929777903,0.0201099199727,-0.00342126538597,0.04429786892296875,0.0715635826404982,1.3871479338163404
1765470133.5129323,6.17503809928894,-0.165189535708,0.25235801388,-0.0425124323622,-0.0567766537048,0.099864984117,0.00150875925367,-0.0183702955206,0.0197816732118,-0.00277141858051,0.04429786892296875,0.0715635826404982,1.3871479338163404
1765470133.5332854,6.1953911781311035,-0.166348678105,0.254378774182,-0.0420118438864,-0.0572210117447,0.100240463923,0.00259833996318,-0.0191667285225,0.0195141792894,-0.00226308335314,0.04429786892296875,0.0715635826404982,1.3871479338163404
1765470133.5544126,6.216518402099609,-0.167515330505,0.256407049579,-0.0415847331688,-0.0576679378443,0.10061495746,0.00346509187867,-0.0198165737294,0.019295919068,-0.00186630175458,0.04429786892296875,0.0715635826404982,1.3871479338163404
1765470133.5730412,6.235146999359131,-0.168668797129,0.258451618805,-0.0412237650265,-0.0578545855614,0.100977209907,0.00407265738005,-0.0174568910561,0.0189715721971,-0.00242986769573,0.044307984773921845,0.07160598515847931,1.3874126520286942
1765470133.5937963,6.255902051925659,-0.169819500737,0.260486440522,-0.0416550436221,-0.0580300087587,0.101335043112,0.00277048745944,-0.0155305188921,0.0187067854141,-0.00304252855914,0.044307984773921845,0.07160598515847931,1.3874126520286942
1765470133.6139717,6.276077508926392,-0.170976089266,0.262527920278,-0.0420292816708,-0.0581988288404,0.101691814603,0.00166160505328,-0.013956677076,0.0184904551955,-0.00352740434375,0.044307984773921845,0.07160598515847931,1.3874126520286942
1765470133.6340892,6.296195030212402,-0.172138489403,0.264577002641,-0.0423539323845,-0.0583623175637,0.102047869084,0.000719899798791,-0.0126700724166,0.0183136067573,-0.00391025217492,0.044307984773921845,0.07160598515847931,1.3874126520286942
1765470133.6538932,6.3159990310668945,-0.173306395656,0.266634029025,-0.0426354217768,-0.0585214394568,0.102403406301,-7.71228718675e-05,-0.0116178254234,0.0181689716233,-0.00421166457779,0.044307984773921845,0.07160598515847931,1.3874126520286942
1765470133.6773732,6.339478969573975,-0.174518633587,0.268767694835,-0.0428806206362,-0.0586843377561,0.102770632321,-0.000754541504753,-0.0107527627858,0.0180500656522,-0.00444951888875,0.044307984773921845,0.07160598515847931,1.3874126520286942
1765470133.6951277,6.35723352432251,-0.175695411775,0.270838899346,-0.0430922191846,-0.0588364077651,0.103125077747,-0.00131881231681,-0.0100469556014,0.017953049916,-0.00463467372515,0.044307984773921845,0.07160598515847931,1.3874126520286942
1765470133.7152503,6.377356052398682,-0.176876250631,0.272917284213,-0.0432747409872,-0.0589860613155,0.103479175219,-0.00178835232926,-0.00947048774529,0.0178738123356,-0.00477827024763,0.044307984773921845,0.07160598515847931,1.3874126520286942
1765470133.735179,6.397284746170044,-0.178061398331,0.275003681221,-0.0415949721582,-0.0591337947099,0.103833131241,0.00218537313298,-0.00899930096147,0.0178090460174,-0.00454166753869,0.044307984773921845,0.07160598515847931,1.3874126520286942
1765470133.755674,6.4177796840667725,-0.179249853549,0.277096654978,-0.0401523959185,-0.0592798285693,0.104186750928,0.00540803691074,-0.00861401541457,0.0177560871331,-0.00440814793997,0.044307984773921845,0.07160598515847931,1.3874126520286942
1765470133.7750032,6.437108993530273,-0.180468506875,0.279197857658,-0.0389109279405,-0.0595985690394,0.104393721184,0.00805940317863,-0.010195970633,0.0160740105418,-0.00348468889343,0.0440766143318428,0.07157426025199373,1.3875223742656055
1765470133.7958603,6.457966089248657,-0.181684469302,0.281293811775,-0.0378498745062,-0.0599219701177,0.104592668488,0.0101635618686,-0.0114897877434,0.0146983082151,-0.00277340124661,0.0440766143318428,0.07157426025199373,1.3875223742656055
1765470133.8159802,6.478085994720459,-0.182903288414,0.283392764369,-0.0369454574593,-0.0602496520883,0.104786281076,0.0118005576184,-0.0125479189446,0.0135732082734,-0.00222913328586,0.0440766143318428,0.07157426025199373,1.3875223742656055
1765470133.8362596,6.49836540222168,-0.184127546327,0.285497980492,-0.0361766675135,-0.0605811861632,0.104975977442,0.0130406122555,-0.0134135506245,0.012652791078,-0.00181565088077,0.0440766143318428,0.07157426025199373,1.3875223742656055
1765470133.8567467,6.518852472305298,-0.185355579151,0.287605568065,-0.0355259593038,-0.0609154512572,0.105162051227,0.0139445286925,-0.0141216597357,0.0118998659976,-0.00150428414598,0.0440766143318428,0.07157426025199373,1.3875223742656055
1765470133.8770773,6.539183139801025,-0.186622600401,0.289775307191,-0.034417592637,-0.0612601281343,0.105351691683,0.0158755280245,-0.0147033495801,0.0112813612136,-0.00116669195433,0.0440766143318428,0.07157426025199373,1.3875223742656055
1765470133.8971763,6.559282064437866,-0.187862833065,0.291893187895,-0.0334839584127,-0.0615992449644,0.105532792763,0.0173198790384,-0.0151783188811,0.0107763312775,-0.000929977477446,0.0440766143318428,0.07157426025199373,1.3875223742656055
1765470133.9172213,6.57932710647583,-0.18910930526,0.294015662949,-0.0326948368644,-0.0619400548512,0.105712144971,0.0183534355066,-0.0155664597423,0.0103636251218,-0.000769285542593,0.0440766143318428,0.07157426025199373,1.3875223742656055
1765470133.9376214,6.599727153778076,-0.190361929849,0.296142130507,-0.0320307096454,-0.0622822004435,0.105890019183,0.0190418879073,-0.0158838057925,0.010026194355,-0.000665381642547,0.0440766143318428,0.07157426025199373,1.3875223742656055
1765470133.957486,6.61959171295166,-0.191620568865,0.298271992823,-0.0314746696353,-0.0626253678912,0.106066633605,0.0194417095972,-0.0161433503233,0.00975022334489,-0.000603364168569,0.0440766143318428,0.07157426025199373,1.3875223742656055
1765470133.9779606,6.640066385269165,-0.192894654783,0.300462093459,-0.0310156622443,-0.0628039866453,0.106363183148,0.0193678831779,-0.0144615884819,0.0108093879918,-0.00344081726292,0.04407657688113998,0.07157892910627978,1.3876271696545002
1765470133.9995446,6.6616504192352295,-0.194169660881,0.302647979258,-0.030640367222,-0.0629745400609,0.106663173919,0.0190826844631,-0.0130844746006,0.0116766869766,-0.00578002482373,0.04407657688113998,0.07157892910627978,1.3876271696545002
1765470134.0186532,6.680758953094482,-0.195430182499,0.304804898552,-0.0299730732631,-0.0631357349221,0.106962757219,0.0195047008073,-0.0119602076357,0.0123847443207,-0.00763270424557,0.04407657688113998,0.07157892910627978,1.3876271696545002
1765470134.0395927,6.701698541641235,-0.196694980492,0.30696572896,-0.0294182331909,-0.0632928806832,0.107264691177,0.0196278359386,-0.0110416718446,0.0129632332678,-0.0091694890863,0.04407657688113998,0.07157892910627978,1.3876271696545002
1765470134.0587814,6.720887184143066,-0.197964344485,0.309131858828,-0.0289603132943,-0.0634468087553,0.107568665865,0.0195047645235,-0.0102907702246,0.013436147107,-0.0104448414617,0.04407657688113998,0.07157892910627978,1.3876271696545002
1765470134.0792613,6.7413671016693115,-0.199254293592,0.311331185413,-0.0285819472363,-0.0636006261925,0.107877838756,0.0191755951737,-0.00967550177135,0.0138236399006,-0.0115055626933,0.04407657688113998,0.07157892910627978,1.3876271696545002
1765470134.09925,6.761355876922607,-0.200530399249,0.313505917868,-0.0282808347553,-0.063749425105,0.108184587893,0.0186875003235,-0.00917280022285,0.0141402386573,-0.0123847240198,0.04407657688113998,0.07157892910627978,1.3876271696545002
1765470134.1196685,6.781774282455444,-0.201811321452,0.315688186433,-0.0280410499496,-0.0638966174958,0.108492685961,0.0180703120023,-0.00876176653686,0.0143991054827,-0.0131135072881,0.04407657688113998,0.07157892910627978,1.3876271696545002
1765470134.1397479,6.801853656768799,-0.203096483557,0.317877414598,-0.0278538876069,-0.0640424432343,0.10880185368,0.0173522099672,-0.00842554349982,0.0146108569599,-0.0137173971363,0.04407657688113998,0.07157892910627978,1.3876271696545002
1765470134.1603355,6.822441339492798,-0.204385535705,0.320073336192,-0.0297294390273,-0.064187125894,0.109111883762,0.0117648515842,-0.00815044901917,0.0147841099981,-0.014598035195,0.04407657688113998,0.07157892910627978,1.3876271696545002
1765470134.1838226,6.845928430557251,-0.205723099319,0.322351060689,-0.0313438928052,-0.0643571470448,0.109457767742,0.00740445072851,-0.00815492947881,0.0152045316062,-0.0100366366946,0.044146763659431175,0.07146352268491687,1.387892686815181
1765470134.2006955,6.8628013134002686,-0.207022719893,0.324564808353,-0.0327458989037,-0.0645219450234,0.109795626262,0.00381476796016,-0.00815858669852,0.015547704923,-0.00625425410592,0.044146763659431175,0.07146352268491687,1.387892686815181
1765470134.2205987,6.882704496383667,-0.208324980046,0.326783707042,-0.0339555702298,-0.0646866703233,0.110134532909,0.000878947937389,-0.00816157419984,0.0158280355612,-0.00311381591479,0.044146763659431175,0.07146352268491687,1.387892686815181
1765470134.2410371,6.903142929077148,-0.209628700763,0.32900586252,-0.0349968602106,-0.0648511726488,0.110473974811,-0.00149572071712,-0.00816401557509,0.0160571207422,-0.000503960098319,0.044146763659431175,0.07146352268491687,1.387892686815181
1765470134.2611601,6.9232659339904785,-0.210935698056,0.331234459377,-0.0358910196342,-0.0650156796768,0.110814215592,-0.00339042892461,-0.00816601168528,0.0162444247074,0.00166713063809,0.044146763659431175,0.07146352268491687,1.387892686815181
1765470134.2813993,6.943505048751831,-0.212247744106,0.333472596554,-0.0366569181663,-0.0651804118599,0.111155556288,-0.00487546176502,-0.00816764463023,0.0163976512507,0.0034750104431,0.044146763659431175,0.07146352268491687,1.387892686815181
1765470134.301572,6.963677883148193,-0.21356176805,0.33571510185,-0.0380444032441,-0.0653449824279,0.111497110098,-0.00775400258884,-0.00816898044818,0.0165229970361,0.0048425919321,0.044146763659431175,0.07146352268491687,1.387892686815181
1765470134.3216455,6.98375129699707,-0.214878853629,0.337963873021,-0.039230918544,-0.0655095266129,0.111839049329,-0.0100087888969,-0.00817007335572,0.0166255494486,0.00601056818822,0.044146763659431175,0.07146352268491687,1.387892686815181
1765470134.3415825,7.003688335418701,-0.21619917165,0.340219243066,-0.0402423156329,-0.0656740649785,0.112181336584,-0.0117322451645,-0.00817096763082,0.0167094632897,0.00700806743058,0.044146763659431175,0.07146352268491687,1.387892686815181
1765470134.3615081,7.023613929748535,-0.217523914882,0.34248328457,-0.0411015118338,-0.0658387448854,0.112524209344,-0.0130046283979,-0.00817169953178,0.0167781408363,0.00785991836662,0.044146763659431175,0.07146352268491687,1.387892686815181
1765470134.3822048,7.044310569763184,-0.218877404344,0.344789714828,-0.0418411329641,-0.0659979541388,0.11278089998,-0.0140517336453,-0.00807621531127,0.0158095617076,0.00661495702295,0.04441772365558992,0.071522345255494,1.3880428891006615
1765470134.4024942,7.064599990844727,-0.220208955387,0.347059504971,-0.0424601637917,-0.0661536908244,0.113027696366,-0.0147852277166,-0.00799818702401,0.0150180532249,0.00562322906365,0.04441772365558992,0.071522345255494,1.3880428891006615
1765470134.4235985,7.085704326629639,-0.221560361469,0.349363795175,-0.0429829142772,-0.066311138946,0.113275302264,-0.0152514551389,-0.00793427605827,0.0143697489587,0.00483246482803,0.04441772365558992,0.071522345255494,1.3880428891006615
1765470134.4437706,7.105876445770264,-0.222896200375,0.351641846541,-0.0434153302116,-0.0664660923645,0.113516375866,-0.015497568835,-0.00788207412278,0.0138402195251,0.00420448594867,0.04441772365558992,0.071522345255494,1.3880428891006615
1765470134.4625268,7.1246325969696045,-0.224236013525,0.353926860679,-0.0435902043205,-0.0666209537129,0.113755743139,-0.0151240216786,-0.00783940323415,0.0134073717529,0.00374063979876,0.04441772365558992,0.071522345255494,1.3880428891006615
1765470134.484055,7.146160840988159,-0.225605150737,0.356261962723,-0.0437316930161,-0.0667787231043,0.113998726493,-0.0146768064265,-0.0078044083333,0.0130523881714,0.00336616388137,0.04441772365558992,0.071522345255494,1.3880428891006615
1765470134.5041246,7.1662304401397705,-0.226951182278,0.35855751678,-0.043835500166,-0.0669332789483,0.114235183926,-0.0141795465675,-0.00777582933285,0.0127624866231,0.00306457669658,0.04441772365558992,0.071522345255494,1.3880428891006615
1765470134.524112,7.186217784881592,-0.228299552555,0.360856868656,-0.0439123414322,-0.0670876399894,0.114470469212,-0.0136444559417,-0.00775247521353,0.0125255855686,0.00282124701071,0.04441772365558992,0.071522345255494,1.3880428891006615
1765470134.544279,7.206384897232056,-0.229651192012,0.363161523924,-0.0439666013632,-0.0672419335776,0.114704944162,-0.0130828256885,-0.00773338032546,0.0123318895844,0.00262449187103,0.04441772365558992,0.071522345255494,1.3880428891006615
1765470134.5644095,7.226515293121338,-0.231005868595,0.36547101934,-0.0440018545496,-0.0673961484393,0.114938715098,-0.012504213846,-0.00771776260862,0.0121734655591,0.00246498491137,0.04441772365558992,0.071522345255494,1.3880428891006615
1765470134.5846992,7.24680495262146,-0.232359109841,0.367793701848,-0.0440218926117,-0.0673915962188,0.115059722582,-0.0118974054521,-0.00594509802071,0.0107870270673,0.00254900275082,0.044548705408140585,0.07181246336674452,1.3880772438787237
1765470134.604814,7.266919851303101,-0.233703437673,0.37010136569,-0.0421913853396,-0.0673794530674,0.115173754143,-0.00692966963527,-0.00449564152276,0.00965337646325,0.00296429445488,0.044548705408140585,0.07181246336674452,1.3880772438787237
1765470134.6248617,7.286967515945435,-0.235049703086,0.372413076093,-0.0406083002354,-0.0673621489208,0.115283753571,-0.00278397932146,-0.00331006830702,0.00872611455915,0.0032384996493,0.044548705408140585,0.07181246336674452,1.3880772438787237
1765470134.6451566,7.307262420654297,-0.236399981098,0.374732848893,-0.0392409616219,-0.0673407057792,0.115390754309,0.000653495201388,-0.00233984865526,0.00796728523531,0.00340650476218,0.044548705408140585,0.07181246336674452,1.3880772438787237
1765470134.665206,7.327311754226685,-0.237748488805,0.37705115607,-0.0380624814428,-0.0673156537622,0.115494680794,0.00347896354241,-0.00154611514609,0.00734648945881,0.00349527592748,0.044548705408140585,0.07181246336674452,1.3880772438787237
1765470134.686703,7.348808765411377,-0.239145632883,0.379454879305,-0.037041691507,-0.0672885431637,0.115601372283,0.00579137813718,-0.000893250072701,0.00683586986734,0.00352711721881,0.044548705408140585,0.07181246336674452,1.3880772438787237
1765470134.7062805,7.368386268615723,-0.240496296857,0.381780971022,-0.0361698707443,-0.0672580817311,0.115701168912,0.00764288589642,-0.000360482444661,0.00641918102969,0.00351655541136,0.044548705408140585,0.07181246336674452,1.3880772438787237
1765470134.7263432,7.38844895362854,-0.241846413699,0.384108446604,-0.0354251346218,-0.0672257506971,0.115799437441,0.00910414101907,7.4663755449e-05,0.00607884397693,0.00347689784239,0.044548705408140585,0.07181246336674452,1.3880772438787237
1765470134.7463667,7.408472537994385,-0.243196586192,0.386438513546,-0.0346068128636,-0.06719188945,0.115896515011,0.0106700301553,0.000430322777577,0.00580067552838,0.00345283243881,0.044548705408140585,0.07181246336674452,1.3880772438787237
1765470134.7703495,7.43245530128479,-0.24454623294,0.388770308918,-0.033909965484,-0.067156772968,0.115992577181,0.0118726553179,0.0007211351866,0.00557322498839,0.00340430457339,0.044548705408140585,0.07181246336674452,1.3880772438787237
1765470134.786759,7.448864698410034,-0.245905480181,0.391166197673,-0.0333109653822,-0.0672031672766,0.116673511566,0.0129231182862,5.12652472233e-05,0.0118252746967,0.00527855415324,0.04453858539599829,0.0719359258504049,1.3882146629909717
1765470134.806694,7.468799829483032,-0.247263844063,0.39356516424,-0.0328032412625,-0.0672519680374,0.117376753381,0.0137194107109,-0.000496759710425,0.0169401172583,0.00679103721268,0.04453858539599829,0.0719359258504049,1.3882146629909717
1765470134.8267193,7.488825082778931,-0.2486221607,0.395970382016,-0.0323742743784,-0.0673027346882,0.118098302231,0.0143007699107,-0.000945152018572,0.0211250654618,0.00801093880362,0.04453858539599829,0.0719359258504049,1.3882146629909717
1765470134.8471737,7.509279489517212,-0.24998050374,0.398383386702,-0.0320133189714,-0.067355108948,0.118834793662,0.014701073882,-0.00131204982976,0.024549406843,0.00899431772105,0.04453858539599829,0.0719359258504049,1.3882146629909717
1765470134.867261,7.529366731643677,-0.251339314241,0.400806104309,-0.0317109703078,-0.0674088035557,0.119583599402,0.0149496150687,-0.00161229008341,0.0273516179588,0.00978664067383,0.04453858539599829,0.0719359258504049,1.3882146629909717
1765470134.8881428,7.550248622894287,-0.252739055061,0.403311641445,-0.0312677708934,-0.0674646430657,0.120359772277,0.0155106309073,-0.0018590804216,0.0296549687605,0.0104620511061,0.04453858539599829,0.0719359258504049,1.3882146629909717
1765470134.9079964,7.570102214813232,-0.254099581678,0.405758188214,-0.0309028799789,-0.0675203915629,0.121127803175,0.0158788143318,-0.00206057260589,0.0315355415075,0.0109983663843,0.04453858539599829,0.0719359258504049,1.3882146629909717
1765470134.9284863,7.5905921459198,-0.255460288878,0.408216260194,-0.0305979066452,-0.067576829611,0.121902152471,0.0160909095996,-0.00222520309752,0.0330720756265,0.0114239768278,0.04453858539599829,0.0719359258504049,1.3882146629909717
1765470134.9482524,7.610358238220215,-0.256822034301,0.410687913585,-0.0303443511884,-0.0676338540635,0.122682001215,0.016173519317,-0.00235979596436,0.0343282617075,0.011761491974,0.04453858539599829,0.0719359258504049,1.3882146629909717
1765470134.9685645,7.6306703090667725,-0.258247213436,0.413238832934,-0.030134362053,-0.0677839058848,0.123178944251,0.0159544990549,-0.00346725115456,0.0318978652874,0.00957688844064,0.044847204154446436,0.07181431925712917,1.3883855047749003
1765470134.989552,7.651657819747925,-0.259622002959,0.415709006356,-0.0299747356466,-0.0679359686917,0.123641257207,0.0156329193772,-0.00437048241162,0.0299156541487,0.00778843656541,0.044847204154446436,0.07181431925712917,1.3883855047749003
1765470135.009702,7.671807765960693,-0.260996991995,0.418188650944,-0.0298482526781,-0.0680910621881,0.124096033674,0.0152369672203,-0.00510786521603,0.0282974103192,0.00632307829505,0.044847204154446436,0.07181431925712917,1.3883855047749003
1765470135.029569,7.691674709320068,-0.262374596758,0.420680913117,-0.0314040861675,-0.0682487643917,0.124545424222,0.0108562237933,-0.00571040225736,0.0269750959888,0.00480910142579,0.044847204154446436,0.07181431925712917,1.3883855047749003
1765470135.0496712,7.711776971817017,-0.263754079237,0.423183431793,-0.032750686057,-0.0684085476629,0.124990012225,0.00717142195789,-0.00620299450043,0.0258940640566,0.00362721507163,0.044847204154446436,0.07181431925712917,1.3883855047749003
1765470135.069928,7.732033729553223,-0.265135479126,0.425695447811,-0.0339149311354,-0.0685700151332,0.125430574451,0.00408763937034,-0.00660583270221,0.0250100043383,0.00270885971527,0.044847204154446436,0.07181431925712917,1.3883855047749003
1765470135.0903497,7.752455472946167,-0.266520173106,0.428218801986,-0.0349202386715,-0.068732971451,0.125868236634,0.00152214642114,-0.00693538884455,0.0242867677905,0.00199908503754,0.044847204154446436,0.07181431925712917,1.3883855047749003
1765470135.1102755,7.77238130569458,-0.267907054614,0.430750916631,-0.03578693939,-0.0688970415036,0.126303106129,-0.000596488491989,-0.00720501859856,0.0236950443559,0.00145414764372,0.044847204154446436,0.07181431925712917,1.3883855047749003
1765470135.1303184,7.792424201965332,-0.269297515845,0.433293890837,-0.0365328238663,-0.0690621467159,0.126736090073,-0.00233071570952,-0.00742566590194,0.0232108167131,0.0010389526807,0.044847204154446436,0.07181431925712917,1.3883855047749003
1765470135.1504061,7.812511920928955,-0.270692462089,0.435849021724,-0.0371735056112,-0.0692282080698,0.127167823418,-0.00373489029404,-0.0076062675972,0.0228144722673,0.000725491796402,0.044847204154446436,0.07181431925712917,1.3883855047749003
1765470135.1700542,7.832159996032715,-0.272113276558,0.438418701798,-0.0377143046394,-0.0695088845018,0.127446510153,-0.00465885559097,-0.00899436992465,0.0207805227648,0.00296053788028,0.044839922073340754,0.07172315592406439,1.3886594108930148
1765470135.191074,7.853179693222046,-0.273539086075,0.44099941226,-0.0381750403878,-0.0697951071578,0.127717709787,-0.00533228673838,-0.0101312185806,0.0191147285994,0.00481012566086,0.044839922073340754,0.07172315592406439,1.3886594108930148
1765470135.2111764,7.873282194137573,-0.274954340797,0.443561179826,-0.0385640415641,-0.070083462609,0.127978651161,-0.00579381035112,-0.0110603453238,0.01775330384,0.00633801197698,0.044839922073340754,0.07172315592406439,1.3886594108930148
1765470135.2312129,7.8933186531066895,-0.276374181779,0.446130478777,-0.0388914936453,-0.0703751460953,0.128234788922,-0.00607691997694,-0.0118200872184,0.0166400742042,0.00760099138571,0.044839922073340754,0.07172315592406439,1.3886594108930148
1765470135.2512045,7.913310289382935,-0.277801303629,0.448711165597,-0.0391656604811,-0.0706699820519,0.128487521948,-0.00621075575786,-0.012441685552,0.0157292626623,0.00864571092946,0.044839922073340754,0.07172315592406439,1.3886594108930148
1765470135.2723203,7.9344260692596436,-0.279230548786,0.45129300466,-0.0393931401478,-0.0709665530138,0.128736320095,-0.00622126249678,-0.0129501395288,0.0149842385436,0.00950971750391,0.044839922073340754,0.07172315592406439,1.3886594108930148
1765470135.2920592,7.954164981842041,-0.280692181979,0.45393012103,-0.0395824845418,-0.0712699895222,0.128988004853,-0.00612569874624,-0.0133673012804,0.0143729824998,0.0102264265079,0.044839922073340754,0.07172315592406439,1.3886594108930148
1765470135.312264,7.974369764328003,-0.282133566475,0.456526567424,-0.0397347629445,-0.0715702257016,0.129232104475,-0.00595053021533,-0.0137081723864,0.0138735131143,0.0108184151133,0.044839922073340754,0.07172315592406439,1.3886594108930148
1765470135.332413,7.994518756866455,-0.283580136786,0.459128017562,-0.0398570679506,-0.0718716073785,0.1294743556,-0.00570874832934,-0.01398684137,0.0134651868479,0.0113074666938,0.044839922073340754,0.07172315592406439,1.3886594108930148
1765470135.3525186,8.01462435722351,-0.285031832867,0.461733987748,-0.0399536472022,-0.0721738799848,0.129715050275,-0.00541436284333,-0.0142147314571,0.0131312655512,0.0117114160561,0.044839922073340754,0.07172315592406439,1.3886594108930148
1765470135.3719416,8.034047365188599,-0.286466280895,0.464338905852,-0.0400260336963,-0.0722422207908,0.12987854726,-0.00503033803477,-0.0118172338683,0.0120205834603,0.0126515943224,0.044530021668618,0.07165784189833019,1.3887642062819094
1765470135.3931804,8.055286169052124,-0.287931303137,0.466994916835,-0.0400808399065,-0.0723056551025,0.130042095108,-0.00460801113986,-0.00985049293081,0.0111094568144,0.0134251944307,0.044530021668618,0.07165784189833019,1.3887642062819094
1765470135.4133396,8.075445413589478,-0.289376101491,0.469611761904,-0.0401179296229,-0.0723580947815,0.130198345795,-0.00416676424914,-0.00824327150668,0.0103648837811,0.0140589506331,0.044530021668618,0.07165784189833019,1.3887642062819094
1765470135.433734,8.095839738845825,-0.290827430276,0.472238446942,-0.0401415333604,-0.0724050947473,0.130352357367,-0.00370938649466,-0.00692881947443,0.00975594121599,0.0145782722311,0.044530021668618,0.07165784189833019,1.3887642062819094
1765470135.4537065,8.115812301635742,-0.292276316434,0.474859553065,-0.0401534216153,-0.0724468395254,0.130503453688,-0.00324431812187,-0.00585423811774,0.0092581228767,0.015003335912,0.044530021668618,0.07165784189833019,1.3887642062819094
1765470135.47372,8.135825872421265,-0.293728661302,0.477486302117,-0.0390546576648,-0.0724848387709,0.130652908468,-0.000160724181626,-0.00497531740988,0.00885094770617,0.0155588713759,0.044530021668618,0.07165784189833019,1.3887642062819094
1765470135.4939811,8.156086921691895,-0.295199542866,0.480146380744,-0.038100979333,-0.0725207031218,0.130802861568,0.00243792680994,-0.00425508055306,0.00851728556536,0.0159750491339,0.044530021668618,0.07165784189833019,1.3887642062819094
1765470135.5141716,8.17627739906311,-0.296658535593,0.482785333782,-0.0372761837224,-0.0725530261029,0.130949941115,0.00460587573377,-0.00366616016553,0.00824445804283,0.016281176575,0.044530021668618,0.07165784189833019,1.3887642062819094
1765470135.5344663,8.196572065353394,-0.298115342195,0.485420966974,-0.0365644241503,-0.0725830445519,0.131095619058,0.00640334738301,-0.00318468000601,0.00802140405821,0.0165019697441,0.044530021668618,0.07165784189833019,1.3887642062819094
1765470135.5522573,8.214363098144531,-0.29957067409,0.488054823042,-0.0359514405592,-0.0726112359976,0.131240199337,0.00788183590895,-0.00279100592302,0.00783902775231,0.0166571371365,0.044530021668618,0.07165784189833019,1.3887642062819094
1765470135.573678,8.235783815383911,-0.301004961784,0.490698776209,-0.0354295249087,-0.0723998954636,0.131419390176,0.00896985162573,0.000151545057707,0.00807544236367,0.0152969082745,0.044654986341580764,0.07179277261943474,1.3888872443242712
1765470135.5946672,8.256772994995117,-0.302475871464,0.493412597285,-0.0349777370551,-0.0721771303938,0.131603580226,0.00982648945288,0.00256827913531,0.00826961104637,0.0141612056004,0.044654986341580764,0.07179277261943474,1.3888872443242712
1765470135.6156585,8.277764320373535,-0.303910225407,0.496065056008,-0.0338611761965,-0.0719459566607,0.131784476033,0.012216594581,0.00454213062018,0.0084281970266,0.0133566307889,0.044654986341580764,0.07179277261943474,1.3888872443242712
1765470135.6357245,8.29783034324646,-0.305343110439,0.49872142587,-0.0329059332704,-0.0717077912636,0.131965964333,0.0141039852859,0.00615543032035,0.00855781504312,0.0126593398047,0.044654986341580764,0.07179277261943474,1.3888872443242712
1765470135.6560054,8.318111181259155,-0.306787976662,0.501407881998,-0.0320878272199,-0.0714624719949,0.132149651855,0.0155664129567,0.00747659089861,0.00866396160326,0.0120545549813,0.044654986341580764,0.07179277261943474,1.3888872443242712
1765470135.6762722,8.338377952575684,-0.308214497189,0.504069523558,-0.0313952097659,-0.0712138361841,0.13233187565,0.0166616039538,0.00855624799345,0.00875070494744,0.0115315533037,0.044654986341580764,0.07179277261943474,1.3888872443242712
1765470135.6967816,8.358887434005737,-0.30966803034,0.506791510117,-0.0308020492591,-0.0709574658686,0.132518177395,0.0174524085814,0.00944179857439,0.00882185311031,0.0110781215775,0.044654986341580764,0.07179277261943474,1.3888872443242712
1765470135.7168033,8.37890911102295,-0.311087500044,0.509460779043,-0.0303084809069,-0.0707016626039,0.132701003962,0.0179781314983,0.0101648673689,0.00887994693065,0.0106873328122,0.044654986341580764,0.07179277261943474,1.3888872443242712
1765470135.736856,8.398961782455444,-0.312502554421,0.512133007881,-0.0298949004248,-0.0704433812846,0.132883991176,0.0182864067888,0.0107557170956,0.00892741781882,0.0103508507909,0.044654986341580764,0.07179277261943474,1.3888872443242712
1765470135.7569208,8.419026613235474,-0.313913903157,0.514810022287,-0.0330382306258,-0.0701829255275,0.133067224221,0.0101316027446,0.0112388238047,0.00896623226439,0.00940309158856,0.044654986341580764,0.07179277261943474,1.3888872443242712
1765470135.7767699,8.438875675201416,-0.31533273563,0.517507719016,-0.0357623030564,-0.070030428982,0.133402159016,0.0031241342682,0.0104265909678,0.0106629869758,0.00550778463494,0.04531434757678156,0.07177066838238708,1.3891671425548384
1765470135.797665,8.459770917892456,-0.316771406183,0.520255800453,-0.038116217541,-0.0698773996773,0.133747173836,-0.0026960460454,0.00976038129585,0.0120546992389,0.00240863059582,0.04531434757678156,0.07177066838238708,1.3891671425548384
1765470135.8177333,8.479839086532593,-0.318183735034,0.522966161829,-0.0401409253927,-0.0697300725733,0.134093750742,-0.00747565268649,0.0092159260935,0.0131920663678,-4.00500342505e-05,0.04531434757678156,0.07177066838238708,1.3891671425548384
1765470135.83807,8.500175714492798,-0.319598229059,0.52569331147,-0.0418803139647,-0.0695839340409,0.134445579807,-0.0113637046409,0.00877050086935,0.0141225598338,-0.00197150723622,0.04531434757678156,0.07177066838238708,1.3891671425548384
1765470135.8583481,8.520453929901123,-0.321000534651,0.528409575541,-0.0433684526796,-0.0694405005383,0.134799052803,-0.0144843752232,0.0084064446829,0.0148830733485,-0.00348842759714,0.04531434757678156,0.07177066838238708,1.3891671425548384
1765470135.8784075,8.540513277053833,-0.322399217832,0.531131447007,-0.0446394425807,-0.0692983789197,0.135155173501,-0.0169505240895,0.00810876131614,0.0155049340171,-0.00467623659504,0.04531434757678156,0.07177066838238708,1.3891671425548384
1765470135.8988762,8.56098198890686,-0.32381997581,0.53390929205,-0.0438895425356,-0.0691543996942,0.135519318263,-0.0144949191806,0.00786461314567,0.01601495964,-0.00525776282905,0.04531434757678156,0.07177066838238708,1.3891671425548384
1765470135.9188602,8.580965995788574,-0.325212074738,0.536643939333,-0.0432296031714,-0.0690142529759,0.135879549058,-0.012387269617,0.00766516758932,0.0164316014845,-0.0057604460298,0.04531434757678156,0.07177066838238708,1.3891671425548384
1765470135.9389863,8.601092100143433,-0.326600927097,0.539384961862,-0.0426538462613,-0.068874822543,0.136241214292,-0.0105835227204,0.00750213786892,0.0167721706337,-0.00619533395626,0.04531434757678156,0.07177066838238708,1.3891671425548384
1765470135.959112,8.621217727661133,-0.327987060824,0.542133412127,-0.0421519012313,-0.068735933523,0.136604165243,-0.00904392866804,0.00736881220464,0.0170506879981,-0.00657182346895,0.04531434757678156,0.07177066838238708,1.3891671425548384
1765470135.9791694,8.64127516746521,-0.329374715,0.544872178131,-0.0417114168879,-0.0686328505713,0.136785846209,-0.0076632580588,0.00687012307121,0.0152716914403,-0.00601853678339,0.044582157208145505,0.07145556649116026,1.3891134798588733
1765470135.9999588,8.662064552307129,-0.330774002173,0.547646089737,-0.0413280019153,-0.0685301707019,0.136964142556,-0.00647782754985,0.00646145731119,0.0138138393805,-0.00558076789365,0.044582157208145505,0.07145556649116026,1.3891134798588733
1765470136.0197358,8.681841611862183,-0.332153768457,0.550392007255,-0.0409929580224,-0.0684306154186,0.137133565026,-0.00546402831436,0.0061274283564,0.0126222426102,-0.0052368723754,0.044582157208145505,0.07145556649116026,1.3891134798588733
1765470136.040291,8.702396869659424,-0.333555313359,0.55319186817,-0.0414380516859,-0.0683301278813,0.13730303199,-0.00634619382332,0.00585355775258,0.0116452514772,-0.00510587927187,0.044582157208145505,0.07145556649116026,1.3891134798588733
1765470136.0604284,8.7225341796875,-0.334931126737,0.555949709604,-0.0418158975259,-0.0682326893437,0.137464773369,-0.00702836543592,0.0056298247988,0.0108471186767,-0.00498314395182,0.044582157208145505,0.07145556649116026,1.3891134798588733
1765470136.0805848,8.742690563201904,-0.336305575241,0.558713853719,-0.0421371420897,-0.0681359640988,0.137623844666,-0.00754256630882,0.0054469160615,0.0101946199711,-0.00486949040673,0.044582157208145505,0.07145556649116026,1.3891134798588733
1765470136.1005843,8.76269006729126,-0.337679169404,0.5614849211,-0.0424093502439,-0.0680397831632,0.137780789244,-0.00791472000387,0.0052973048176,0.00966090493689,-0.00476527158071,0.044582157208145505,0.07145556649116026,1.3891134798588733
1765470136.1207452,8.782850980758667,-0.339049811364,0.56425832466,-0.0426388137286,-0.06794420228,0.137935701131,-0.00816702802934,0.00517491953279,0.00922431431201,-0.00467053836448,0.044582157208145505,0.07145556649116026,1.3891134798588733
1765470136.1410565,8.803162336349487,-0.340417248136,0.567033251436,-0.0428312099152,-0.0678491444746,0.138088896765,-0.00831884788749,0.00507480168545,0.00886715933535,-0.00458510008816,0.044582157208145505,0.07145556649116026,1.3891134798588733
1765470136.1629167,8.825022459030151,-0.34178868209,0.569824146591,-0.0429922680871,-0.0677539968499,0.138241587015,-0.00838703121828,0.00499283164856,0.00857474387311,-0.00450850188238,0.044582157208145505,0.07145556649116026,1.3891134798588733
1765470136.184292,8.846397876739502,-0.343297122844,0.572819037321,-0.0412789792715,-0.0681753841098,0.138642598754,-0.00394971190199,-0.000824190256813,0.0109593562728,-0.00363748406511,0.04451971024177235,0.07145075615644131,1.3894272002352848
1765470136.207046,8.869151830673218,-0.344840237166,0.575887554665,-0.0397827919831,-0.0686302681566,0.139062561259,-0.000247740291109,-0.00562114179326,0.0129258041047,-0.00297899202996,0.04451971024177235,0.07145075615644131,1.3894272002352848
1765470136.224775,8.886880874633789,-0.346259175169,0.578704972525,-0.0385017495317,-0.0690980047689,0.139468171776,0.00275902704394,-0.00950300235434,0.0145171223047,-0.00250271540013,0.04451971024177235,0.07145075615644131,1.3894272002352848
1765470136.2449117,8.907017469406128,-0.347680962823,0.581526802904,-0.0374094317352,-0.0695776246558,0.139878552393,0.00517766900074,-0.0126559171443,0.0158096186758,-0.00216299191245,0.04451971024177235,0.07145075615644131,1.3894272002352848
1765470136.264822,8.9269278049469,-0.349121659791,0.584383031642,-0.0364761458582,-0.0700700925091,0.140296327049,0.00710330054232,-0.0152270522523,0.0168636220403,-0.00192538153069,0.04451971024177235,0.07145075615644131,1.3894272002352848
1765470136.2854779,8.947583675384521,-0.350554416159,0.587218032446,-0.0356828617553,-0.0705682519078,0.140714310229,0.0086098509309,-0.0173225632162,0.017722649479,-0.00176527827294,0.04451971024177235,0.07145075615644131,1.3894272002352848
1765470136.3062193,8.968325138092041,-0.352024250596,0.590120147266,-0.0350044300174,-0.0710811153821,0.141142836353,0.009763999951,-0.0190381730248,0.0184259413849,-0.00166239732131,0.04451971024177235,0.07145075615644131,1.3894272002352848
1765470136.3276184,8.989724159240723,-0.353471840037,0.5929701918,-0.0344334655965,-0.0715922331929,0.141566156989,0.010618446576,-0.0204373162233,0.018999501924,-0.00160255933442,0.04451971024177235,0.07145075615644131,1.3894272002352848
1765470136.3460882,9.008193969726562,-0.354926927188,0.595826541052,-0.0343200247911,-0.0721077872368,0.141991194907,0.0103477335673,-0.0215796477488,0.0194677858611,-0.00164363135091,0.04451971024177235,0.07145075615644131,1.3894272002352848
1765470136.3681107,9.030216455459595,-0.356395210692,0.598699635742,-0.0342308136808,-0.0726285642831,0.142419037405,0.0100304968033,-0.0225135137423,0.0198506120673,-0.00168089774467,0.04451971024177235,0.07145075615644131,1.3894272002352848
1765470136.3868356,9.048941373825073,-0.357853220423,0.601603233242,-0.0341647802328,-0.0730002197317,0.143146515862,0.00964413670933,-0.0216208920373,0.023444920723,-0.00213860883526,0.04509581856458374,0.07149536410470014,1.3897359937636795
1765470136.407004,9.069109916687012,-0.359356206193,0.604587001631,-0.0341133160775,-0.0733792126755,0.143898906865,0.00922625618993,-0.0208882779846,0.0263949285661,-0.00251653304602,0.04509581856458374,0.07149536410470014,1.3897359937636795
1765470136.4282603,9.090366125106812,-0.360831584884,0.607510434103,-0.0340814775218,-0.0737450334849,0.144649668818,0.00879158176377,-0.0202901977223,0.0288032108783,-0.00282634136471,0.04509581856458374,0.07149536410470014,1.3897359937636795
1765470136.449623,9.11172890663147,-0.362315731254,0.610446382339,-0.0340621600301,-0.0741089452275,0.145408882037,0.00834570325297,-0.0198015001824,0.0307710431501,-0.00308026444004,0.04509581856458374,0.07149536410470014,1.3897359937636795
1765470136.4673183,9.129424095153809,-0.36380709661,0.613393046304,-0.0340534830283,-0.0744709425222,0.14617456585,0.00789439720588,-0.0194019940202,0.0323797296167,-0.00328818199215,0.04509581856458374,0.07149536410470014,1.3897359937636795
1765470136.4873085,9.149414300918579,-0.365307641453,0.616355282018,-0.0335029459289,-0.0748318812847,0.146946435341,0.00874957716247,-0.0190752241359,0.0336955298231,-0.00335418898527,0.04509581856458374,0.07149536410470014,1.3897359937636795
1765470136.5078561,9.169961929321289,-0.366819398906,0.619337907827,-0.0330367047521,-0.075192533823,0.147724542254,0.00936223044417,-0.0188078019874,0.0347723552438,-0.00342749282408,0.04509581856458374,0.07149536410470014,1.3897359937636795
1765470136.5283425,9.19044828414917,-0.368363149966,0.622382444819,-0.0326409828793,-0.0755582249272,0.148517928298,0.00976931082255,-0.0185884408581,0.0356556539595,-0.00350391328544,0.04509581856458374,0.07149536410470014,1.3897359937636795
1765470136.5483382,9.21044397354126,-0.369885449186,0.625384406558,-0.0323127722665,-0.0759159051813,0.149300969138,0.0100059448684,-0.0184092534736,0.0363771855596,-0.003579997534,0.04509581856458374,0.07149536410470014,1.3897359937636795
1765470136.5688255,9.230931282043457,-0.371471749249,0.62855175281,-0.0320209677887,-0.0760318125947,0.150002266624,0.0102899032228,-0.0153928846293,0.0356061749789,-0.00120143217696,0.04498439024009914,0.07151557916184952,1.3898128259611282
1765470136.5897467,9.25185251235962,-0.372983026709,0.631573317882,-0.0317873734166,-0.0761179426157,0.150661957683,0.0104666132946,-0.012936765418,0.0349783691642,0.000725664897495,0.04498439024009914,0.07151557916184952,1.3898128259611282
1765470136.6098921,9.271997928619385,-0.374498986865,0.634607661479,-0.031594091539,-0.0761956863686,0.151319203093,0.0105519334469,-0.010933578535,0.0344663368625,0.00228944435706,0.04498439024009914,0.07151557916184952,1.3898128259611282
1765470136.6299016,9.292007446289062,-0.376020699922,0.637658387013,-0.0314348226128,-0.0762667736844,0.151975245432,0.0105622792635,-0.00929768896186,0.034048189005,0.00355998247191,0.04498439024009914,0.07151557916184952,1.3898128259611282
1765470136.6502972,9.312402963638306,-0.377545256811,0.64072090898,-0.0313047131988,-0.0763320863122,0.152629388848,0.0105115192154,-0.00796091568718,0.0337064979214,0.0045929066992,0.04498439024009914,0.07151557916184952,1.3898128259611282
1765470136.6702344,9.332340240478516,-0.379073075672,0.643797030775,-0.0311992676534,-0.0763927496799,0.15328232877,0.0104114033695,-0.0068679821981,0.0334271344457,0.00543313123262,0.04498439024009914,0.07151557916184952,1.3898128259611282
1765470136.6903613,9.352467060089111,-0.380603588569,0.646886414067,-0.0311147759761,-0.076449571021,0.153934226227,0.0102718634178,-0.00597409856351,0.0331986498751,0.00611690518515,0.04498439024009914,0.07151557916184952,1.3898128259611282
1765470136.7106278,9.37273359298706,-0.382137387882,0.649990912898,-0.0310479549066,-0.0765032984362,0.154585672648,0.0101013186451,-0.00524277194038,0.0330117163157,0.0066736259949,0.04498439024009914,0.07151557916184952,1.3898128259611282
1765470136.7307806,9.392886400222778,-0.383686710626,0.653135897783,-0.0309949172647,-0.0765552651781,0.155242196433,0.00990684318704,-0.00464359616675,0.0328585616834,0.00712755486166,0.04498439024009914,0.07151557916184952,1.3898128259611282
1765470136.750878,9.412983894348145,-0.385223992713,0.656266006584,-0.0309562816765,-0.0766041596213,0.155892158318,0.00969365922916,-0.00415365825296,0.0327333292152,0.00749718332133,0.04498439024009914,0.07151557916184952,1.3898128259611282
1765470136.7702475,9.432353258132935,-0.386770594533,0.659373981614,-0.0316828823713,-0.0767039231654,0.156146173866,0.00727500192335,-0.00432998586487,0.0282714842209,0.00206043187277,0.04472481941878968,0.07143244692394701,1.3900810062828992
1765470136.7911472,9.453253030776978,-0.38831684194,0.662489356904,-0.0323162281466,-0.0768042016533,0.15638337985,0.00515767623631,-0.00447422930522,0.0246215064024,-0.00236115839692,0.04472481941878968,0.07143244692394701,1.3900810062828992
1765470136.8124957,9.47460150718689,-0.389864822191,0.665614732703,-0.0328685281552,-0.0769049923223,0.156607494,0.00330459283168,-0.00459224626889,0.0216351709506,-0.00595624016376,0.04472481941878968,0.07143244692394701,1.3900810062828992
1765470136.8316355,9.493741273880005,-0.391433824973,0.668788056427,-0.0333508828718,-0.077007366059,0.156825859039,0.00167863028572,-0.0046889941946,0.0191870333993,-0.00888390561074,0.04472481941878968,0.07143244692394701,1.3900810062828992
1765470136.852407,9.514512777328491,-0.392985855966,0.671930858911,-0.0337723151727,-0.0771089573692,0.15703020648,0.000259025912774,-0.00476808921179,0.0171855901613,-0.0112600524238,0.04472481941878968,0.07143244692394701,1.3900810062828992
1765470136.8719378,9.534043550491333,-0.39453928194,0.675079635391,-0.0341401467876,-0.0772107979862,0.157227292356,-0.000981098935737,-0.0048327732111,0.0155488074965,-0.0131881756969,0.04472481941878968,0.07143244692394701,1.3900810062828992
1765470136.8921802,9.554286003112793,-0.396094275279,0.678233997931,-0.0344613546412,-0.0773128455622,0.157418451151,-0.00206397817385,-0.00488568464726,0.0142099211813,-0.0147522163105,0.04472481941878968,0.07143244692394701,1.3900810062828992
1765470136.9125116,9.574617385864258,-0.397650801143,0.681393272618,-0.0336418757031,-0.0774150545531,0.157604736739,-0.000395681787705,-0.0049289732716,0.0131145332851,-0.015812945738,0.04472481941878968,0.07143244692394701,1.3900810062828992
1765470136.9325137,9.594619512557983,-0.399223679539,0.684587136115,-0.0329405001423,-0.0775183362717,0.157789412501,0.000902518941289,-0.00496444329824,0.0122169894513,-0.0167108827862,0.04472481941878968,0.07143244692394701,1.3900810062828992
1765470136.9525104,9.61461615562439,-0.400785518984,0.687759426168,-0.0323432483692,-0.0776209143175,0.157968659846,0.00188767952056,-0.00499345206099,0.0114829433116,-0.0174700094951,0.04472481941878968,0.07143244692394701,1.3900810062828992
1765470136.972114,9.634219884872437,-0.402363019823,0.690944931314,-0.0318102855898,-0.0778444257476,0.158200798515,0.0031706050008,-0.00634594706705,0.0114912551364,-0.0110653521045,0.04457778795948209,0.07140268609876538,1.3902643649239512
1765470136.992915,9.655020713806152,-0.403941552721,0.694132080046,-0.0313551267812,-0.0780727119106,0.158432748094,0.00425048862852,-0.00745245089241,0.0114980552103,-0.00584398820783,0.04457778795948209,0.07140268609876538,1.3902643649239512
1765470137.0130742,9.675179958343506,-0.405523226539,0.697324228665,-0.0309664559534,-0.0783050092235,0.158664746897,0.00515562831451,-0.00835784605066,0.0115036193609,-0.00158733900854,0.04457778795948209,0.07140268609876538,1.3902643649239512
1765470137.0332081,9.695313930511475,-0.407107801093,0.700520130808,-0.0306347448616,-0.0785405332145,0.158896699999,0.00591069786661,-0.00909871642915,0.0115081724163,0.00188238448085,0.04457778795948209,0.07140268609876538,1.3902643649239512
1765470137.0540729,9.71617865562439,-0.40875100256,0.703831745818,-0.0309003283047,-0.0787853703579,0.159136702306,0.00522656204001,-0.00970812626719,0.0115119175746,0.00462023612206,0.04457778795948209,0.07140268609876538,1.3902643649239512
1765470137.0741735,9.736279249191284,-0.410344458213,0.707039491023,-0.0311336440481,-0.0790261287606,0.159368856863,0.00467833278923,-0.0102055058456,0.0115149742453,0.00686474231161,0.04457778795948209,0.07140268609876538,1.3902643649239512
1765470137.0942528,9.756358623504639,-0.411941254602,0.710250347724,-0.0313349049314,-0.0792685387061,0.159600909623,0.00424736112776,-0.0106117916036,0.0115174710945,0.00870670715786,0.04457778795948209,0.07140268609876538,1.3902643649239512
1765470137.1145072,9.776612997055054,-0.413541934546,0.713465072307,-0.0315078518813,-0.0795123296329,0.15983291353,0.00391641354735,-0.0109438709205,0.0115195119043,0.0102195419643,0.04457778795948209,0.07140268609876538,1.3902643649239512
1765470137.1347363,9.796842098236084,-0.415160647252,0.716711788033,-0.0316555525258,-0.079759196964,0.160066891332,0.00367145139117,-0.0112157626345,0.0115211828283,0.0114643332293,0.04457778795948209,0.07140268609876538,1.3902643649239512
1765470137.1547196,9.81682538986206,-0.416769935325,0.719935121869,-0.0317818183472,-0.080005101031,0.160298853617,0.00349722835215,-0.0114380015977,0.0115225486088,0.0124871276891,0.04457778795948209,0.07140268609876538,1.3902643649239512
1765470137.1742387,9.836344480514526,-0.418400797977,0.723136460134,-0.031907978107,-0.0803987235754,0.160224749754,0.00296820739295,-0.0132321098096,0.00815457704696,0.00814615140508,0.04491309658547988,0.07139026078780449,1.390409906677524
1765470137.1951003,9.857206106185913,-0.420035742691,0.726338847553,-0.0320179882778,-0.0807985819597,0.160138444136,0.00247390269214,-0.0146996558164,0.0053996410941,0.00459962132931,0.04491309658547988,0.07139026078780449,1.390409906677524
1765470137.2162197,9.878325462341309,-0.421678343643,0.729547017812,-0.0319311049328,-0.0812040382937,0.160042345673,0.00244715239746,-0.01590050243,0.00314536388945,0.00173599676564,0.04491309658547988,0.07139026078780449,1.390409906677524
1765470137.235094,9.897199869155884,-0.423325059925,0.732752057386,-0.0318588494072,-0.0816133833257,0.159938018945,0.00236792900275,-0.0168829528635,0.00130106871328,-0.000609968063489,0.04491309658547988,0.07139026078780449,1.390409906677524
1765470137.2556052,9.917711019515991,-0.424978749297,0.73595804742,-0.0317996587794,-0.0820262971666,0.159827063506,0.00224581548225,-0.017686852854,-0.000208044443051,-0.00253215031615,0.04491309658547988,0.07139026078780449,1.390409906677524
1765470137.275502,9.937607765197754,-0.426639473265,0.739163827052,-0.031752118346,-0.0824420894034,0.159710665294,0.00208905014565,-0.0183447028965,-0.00144298680615,-0.00410718402454,0.04491309658547988,0.07139026078780449,1.390409906677524
1765470137.295743,9.95784878730774,-0.428307582549,0.742369036061,-0.0317148855074,-0.0828602545692,0.159589804659,0.00190477823298,-0.018883069535,-0.00245363015321,-0.00539777106691,0.04491309658547988,0.07139026078780449,1.390409906677524
1765470137.3162367,9.978342533111572,-0.430003432833,0.745611809727,-0.0316863788989,-0.0832850007431,0.15946455864,0.00169749923428,-0.019324458064,-0.00328222232156,-0.00645713063899,0.04491309658547988,0.07139026078780449,1.390409906677524
1765470137.3362818,9.998387575149536,-0.431686879704,0.748814368685,-0.0316662204764,-0.0837067186603,0.159336949974,0.00147561406807,-0.0196853430755,-0.00395969007274,-0.00732416688583,0.04491309658547988,0.07139026078780449,1.390409906677524
1765470137.3564432,10.018548965454102,-0.433378023577,0.752014860612,-0.0342209936291,-0.0841296688932,0.159206925691,-0.00485767313591,-0.019980504909,-0.0045137796504,-0.0085181515976,0.04491309658547988,0.07139026078780449,1.390409906677524
1765470137.3763037,10.03840947151184,-0.435058116066,0.755290322855,-0.0364059886053,-0.0843443153973,0.159796955154,-0.00972336496992,-0.017912172651,0.00298161632185,-0.00527925888071,0.04537388587190164,0.07134185783499229,1.3906811496345486
1765470137.396727,10.058832883834839,-0.436744110394,0.758563943569,-0.0382807340332,-0.0845511569471,0.160414103401,-0.0135979789069,-0.0162198920408,0.00911424478161,-0.00255174802342,0.04537388587190164,0.07134185783499229,1.3906811496345486
1765470137.4173872,10.079493045806885,-0.438484024572,0.761930776342,-0.0398964313757,-0.0847604087791,0.161060378487,-0.0166358260191,-0.0148294397948,0.0141530822911,-0.000244982146967,0.04537388587190164,0.07134185783499229,1.3906811496345486
1765470137.4375513,10.09965705871582,-0.440185989533,0.765219550344,-0.0412658758886,-0.084956253216,0.161719871794,-0.0189432941793,-0.0136938413018,0.0182683593882,0.00169618228157,0.04537388587190164,0.07134185783499229,1.3906811496345486
1765470137.4576437,10.119749546051025,-0.441890468876,0.768509645864,-0.042426857073,-0.0851475569397,0.162393343506,-0.0206339628936,-0.012766029378,0.0216306420822,0.00333049677643,0.04537388587190164,0.07134185783499229,1.3906811496345486
1765470137.477864,10.139969825744629,-0.443599758301,0.771807571213,-0.0434074922784,-0.0853355160407,0.163078612002,-0.0218050093692,-0.0120075678646,0.0243792185505,0.00470720098025,0.04537388587190164,0.07134185783499229,1.3906811496345486
1765470137.4979758,10.160081624984741,-0.44531457824,0.775116455858,-0.0409287611513,-0.0855208660283,0.163773837419,-0.0146954443763,-0.0113872573765,0.026627151742,0.00649040368508,0.04537388587190164,0.07134185783499229,1.3906811496345486
1765470137.5182617,10.180367469787598,-0.447064490257,0.778494457072,-0.0387767612476,-0.0857079204762,0.164487004718,-0.00867550886627,-0.0108784814785,0.0284708965279,0.00786543465539,0.04537388587190164,0.07134185783499229,1.3906811496345486
1765470137.5385413,10.200647115707397,-0.448788988845,0.781826747249,-0.0369108319125,-0.0858892047185,0.165197384787,-0.0036280873467,-0.0104627888527,0.0299773183425,0.00891124283621,0.04537388587190164,0.07134185783499229,1.3906811496345486
1765470137.5585923,10.220698118209839,-0.450516622072,0.785168949581,-0.0352986306713,-0.0860688798067,0.165912705957,0.000582288985747,-0.0101229913897,0.0312087048985,0.00969924185523,0.04537388587190164,0.07134185783499229,1.3906811496345486
1765470137.5788622,10.240967988967896,-0.45227862041,0.788554105045,-0.033869114009,-0.0865295067723,0.166899880757,0.00489559141524,-0.0129456441839,0.0351501363153,0.0205375399264,0.04410587581432005,0.07062350342045705,1.3906671680388256
1765470137.6003685,10.262474298477173,-0.45407393024,0.792007746016,-0.0326264279673,-0.0870049682653,0.16791330182,0.00863492960944,-0.015260274207,0.0383821865021,0.0293749290809,0.04410587581432005,0.07062350342045705,1.3906671680388256
1765470137.6194468,10.28155255317688,-0.455846363932,0.79542095383,-0.0315523652264,-0.0874842496223,0.168926345706,0.0118508199403,-0.0171514154802,0.0410228951443,0.0365512201782,0.04410587581432005,0.07062350342045705,1.3906671680388256
1765470137.6395407,10.30164647102356,-0.457625598025,0.798850546533,-0.0330095445171,-0.0879702152972,0.169948711075,0.0089499447347,-0.0186974220999,0.0431816725447,0.0419290200401,0.04410587581432005,0.07062350342045705,1.3906671680388256
1765470137.6596298,10.321735620498657,-0.459412067238,0.802297017272,-0.0342550142747,-0.0884616217273,0.170978620764,0.0067259284277,-0.0199617381595,0.0449471093169,0.0463788545015,0.04410587581432005,0.07062350342045705,1.3906671680388256
1765470137.6826768,10.344782590866089,-0.461206146008,0.805760805925,-0.0353155114336,-0.0889574432685,0.172014614112,0.00507672610972,-0.020995931904,0.0463912131485,0.0500628740286,0.04410587581432005,0.07062350342045705,1.3906671680388256
1765470137.7001476,10.362253427505493,-0.46300821535,0.809242416653,-0.0362145803385,-0.0894568516806,0.173055526459,0.00391385400819,-0.0218420252695,0.0475726616707,0.0531141922222,0.04410587581432005,0.07062350342045705,1.3906671680388256
1765470137.720732,10.382837772369385,-0.464870285206,0.81284231886,-0.0369743124823,-0.089971986028,0.174128114385,0.00318230417345,-0.022537242165,0.0485434327548,0.0556522158669,0.04410587581432005,0.07062350342045705,1.3906671680388256
1765470137.7407174,10.402823209762573,-0.466691390031,0.816364997789,-0.0376120587786,-0.0904773277025,0.175177474511,0.00276914418334,-0.0231048854465,0.0493360655108,0.0577513475184,0.04410587581432005,0.07062350342045705,1.3906671680388256
1765470137.7609107,10.423016548156738,-0.468521526584,0.81990704392,-0.0381424774031,-0.0909845880408,0.176229456787,0.00264428235814,-0.0235687222638,0.049983747368,0.0594888093053,0.04410587581432005,0.07062350342045705,1.3906671680388256
1765470137.7811248,10.443230628967285,-0.470488262487,0.823485514064,-0.0378827509075,-0.0927474501565,0.177436796628,0.00722350405478,-0.0377337598114,0.0521938574366,0.100359068405,0.05121077764492034,0.06813505402026541,1.392903424406165
1765470137.801193,10.463298797607422,-0.472469549068,0.827084867954,-0.0376150030909,-0.0945606820004,0.178651951281,0.0118740300891,-0.0493190340944,0.0540014581051,0.133777239164,0.05121077764492034,0.06813505402026541,1.392903424406165
1765470137.8214674,10.483573198318481,-0.474471312676,0.830707913922,-0.0373354302166,-0.0964158965743,0.179874142092,0.0165536635533,-0.058797355559,0.0554803199601,0.161108204087,0.05121077764492034,0.06813505402026541,1.392903424406165
1765470137.8414822,10.5035879611969,-0.476495236778,0.834351031398,-0.0370428049109,-0.0983044042703,0.18110092027,0.0212211275202,-0.0665520546422,0.0566902524058,0.183458568373,0.05121077764492034,0.06813505402026541,1.392903424406165
1765470137.8617058,10.52381157875061,-0.478544880178,0.838015414612,-0.0367370988156,-0.10022013394,0.182331526243,0.0258442113079,-0.07289697792,0.0576802235777,0.201734412951,0.05121077764492034,0.06813505402026541,1.392903424406165
1765470137.881927,10.54403281211853,-0.480624727855,0.841704855298,-0.036418904633,-0.102159378606,0.183566242773,0.0303990330588,-0.0780894302798,0.0584903796541,0.216678643676,0.05121077764492034,0.06813505402026541,1.392903424406165
1765470137.902145,10.564250707626343,-0.482750809908,0.84544426618,-0.0360863202104,-0.104128911177,0.18481227606,0.0348900505365,-0.082343395275,0.0591541075712,0.228908914571,0.05121077764492034,0.06813505402026541,1.392903424406165
1765470137.922526,10.58463168144226,-0.484944686686,0.849267723708,-0.0373924132633,-0.106141856035,0.18607995408,0.0354020179258,-0.0858348080459,0.0596988577346,0.238619211306,0.05121077764492034,0.06813505402026541,1.392903424406165
1765470137.9431868,10.605292558670044,-0.487124188041,0.853028472379,-0.0384729816741,-0.108128319374,0.187321739849,0.036426008207,-0.0886857046336,0.0601436709045,0.24659403857,0.05121077764492034,0.06813505402026541,1.392903424406165
1765470137.962869,10.624974727630615,-0.489356678054,0.856843045915,-0.0393416297061,-0.110138933707,0.188574536237,0.037980997862,-0.0910181115117,0.0605075863483,0.253154801478,0.05121077764492034,0.06813505402026541,1.392903424406165
1765470137.983203,10.64530873298645,-0.491610647136,0.860543046077,-0.0404164879809,-0.111972696725,0.188397681786,0.031652336073,-0.0908574367993,0.045051921794,0.15542395585,0.054541921954229494,0.05935875228953139,1.3976576995841745
1765470138.0033104,10.665416240692139,-0.493880656727,0.864226586632,-0.0413566930628,-0.113788756168,0.188155538863,0.0252743668325,-0.0907261771372,0.0324257575575,0.0756186599849,0.054541921954229494,0.05935875228953139,1.3976576995841745
1765470138.023463,10.685568809509277,-0.496195115775,0.867936434781,-0.0421903729527,-0.115610406453,0.18787075582,0.0189260185449,-0.0906188258822,0.0220993971637,0.0103795555392,0.054541921954229494,0.05935875228953139,1.3976576995841745
1765470138.0457342,10.707839965820312,-0.498539253349,0.871644116395,-0.0429461480687,-0.11742607559,0.18754753576,0.0126338001999,-0.0905310542463,0.0136564446884,-0.0429330469018,0.054541921954229494,0.05935875228953139,1.3976576995841745
1765470138.0642207,10.72632646560669,-0.50092065649,0.875358661728,-0.0436423587013,-0.11924188632,0.187194403133,0.00642978837974,-0.0904592628567,0.00675066829842,-0.086513463877,0.054541921954229494,0.05935875228953139,1.3976576995841745
1765470138.084084,10.746189832687378,-0.503342006816,0.879081333139,-0.0422757078844,-0.121059898186,0.186816682481,0.00512846483923,-0.0904005176287,0.00109983174704,-0.121769208656,0.054541921954229494,0.05935875228953139,1.3976576995841745
1765470138.1042438,10.76634955406189,-0.505796777863,0.882799659873,-0.0411580862327,-0.122875262608,0.186418545468,0.00306614002958,-0.0903524555949,-0.0035233641629,-0.150661637341,0.054541921954229494,0.05935875228953139,1.3976576995841745
1765470138.124697,10.786802768707275,-0.508335169631,0.88658689503,-0.0402581115516,-0.124724501849,0.186001514265,0.000331444813988,-0.0903130193964,-0.00731682142512,-0.174406944182,0.054541921954229494,0.05935875228953139,1.3976576995841745
1765470138.1449208,10.807026624679565,-0.510879615002,0.890324239374,-0.0395531812176,-0.126550803264,0.185571260088,-0.00285814322728,-0.0902807675838,-0.0104191963379,-0.193856950633,0.054541921954229494,0.05935875228953139,1.3976576995841745
1765470138.1671894,10.82929515838623,-0.513445458459,0.894034858223,-0.0390178731951,-0.128365987984,0.185130961414,-0.00640633567616,-0.0902544133751,-0.0129542673766,-0.209773703875,0.054541921954229494,0.05935875228953139,1.3976576995841745
