timestamp_abs,timestamp_rel,roll,pitch,yaw,acc_x,acc_y,acc_z,gyr_x,gyr_y,gyr_z
1765470649.7770915,0.14768528938293457,0.03565636059409557,-0.06733166570436178,1.358108958448171,0.00213112216443,0.00584546942264,0.0112800598145,-0.00691264867783,0.0014938415261,0.00540092587471
1765470649.974046,0.34463977813720703,0.035575737553282624,-0.06735285447978472,1.357861683940957,-0.00439625000581,0.00214732717723,-0.00491523742676,-0.00699311494827,0.00430271076038,0.00408217357472
1765470650.1762643,0.5468580722808838,0.03537415290352044,-0.0673662951209112,1.3576186704914874,-0.00146882375702,0.0185284297913,-0.0177974700928,-0.00332891987637,0.00132247817237,0.00257566571236
1765470650.3748608,0.7454545497894287,0.0352165520236366,-0.06735761488023323,1.3572835116683009,-0.00973982922733,-0.00727865844965,-0.0137519836426,-0.00816434621811,0.0011570751667,0.00526085542515
1765470650.577478,0.9480717182159424,0.03525516369825354,-0.06739638051885069,1.3572616737473622,0.00280566746369,0.0014757970348,0.00353336334229,-0.00807046890259,-0.000320374994772,0.00388249754906
1765470650.772923,1.1435167789459229,0.03526377735990426,-0.06738859493385142,1.3571922984009657,0.00537723535672,-0.00711218453944,0.0118837356567,-0.0198021549731,0.00179633498192,0.00760927796364
1765470650.972783,1.343376874923706,0.035396327880784555,-0.06744001058764676,1.3571775178569156,0.00950923375785,0.00516679137945,0.00518131256104,-0.00850111246109,0.000789016659837,0.00655278563499
1765470651.172717,1.5433108806610107,0.03576444748364996,-0.067258703412872,1.3573112085436376,-0.000110652763397,-0.0208212062716,-0.00630569458008,-0.00203847908415,0.0022150578443,0.00908896327019
1765470651.3728461,1.7434399127960205,0.03577932373505158,-0.06720027199407999,1.3573282527746142,-0.0287474021316,-0.0126833794639,0.000810623168945,-0.00504851294681,0.000578910112381,0.00487044407055
1765470651.5725873,1.943181037902832,0.03574524359547696,-0.06718054379606739,1.357406150236499,-0.015822565183,-0.0157787688076,0.0267601013184,-0.00434815930203,0.00315085053444,0.00774338748306
1765470651.7723312,2.1429250240325928,0.03606662472121148,-0.06703908833029214,1.3574768571634406,-0.00532692065462,-0.0216620750725,-0.00605010986328,-0.00597983645275,0.00147745013237,0.00272616767325
1765470651.972805,2.3433988094329834,0.036051569538674125,-0.06711594965606535,1.357417734987241,-0.00149786937982,-0.0260568931699,0.000454902648926,-0.0168070234358,-0.00692159030586,0.00410750554875
1765470652.1746242,2.545217990875244,0.03554507791123309,-0.067302250257884,1.3570992209208674,0.00617459882051,-0.0033310148865,-0.0137329101562,-0.0127986101434,0.0073067843914,0.00676736282185
1765470652.3737137,2.744307518005371,0.03556351614059269,-0.0672344811305199,1.3568363669212766,-0.0066468724981,-0.00923490151763,0.0164489746094,-0.0018894673558,0.00494495034218,0.00371560454369
1765470652.5728545,2.943448305130005,0.035561510447396714,-0.06727145745777996,1.3567024099184455,-0.00848069321364,0.00786776654422,0.000405311584473,-0.00610202690586,0.000292807817459,0.00252053211443
1765470652.7727096,3.143303394317627,0.03530305066360453,-0.0672607340732032,1.356479237019097,-0.00136730959639,0.00571531709284,0.0121726989746,-0.00456720590591,0.0017024576664,0.00573322223499
1765470652.972737,3.3433308601379395,0.03546973125832986,-0.06735885907580501,1.356382031639309,-0.020724337548,-0.00986934173852,0.00875282287598,-0.00528991175815,0.000154226989252,0.00394806312397
1765470653.1725123,3.5431060791015625,0.03562039543581189,-0.06737593659629514,1.3564531380404141,-0.0208516251296,-0.0072417780757,0.00791549682617,-0.00846683979034,0.000838190491777,0.0071786348708
1765470653.3732204,3.74381422996521,0.035564119513027154,-0.06732484135406844,1.3563387552715953,-0.00586927635595,-0.00285713467747,-0.00259685516357,-0.00634789466858,0.000499934016261,0.00807121396065
1765470653.5723612,3.9429550170898438,0.03571894071852323,-0.06728696204875127,1.3565211818062657,-0.0119478553534,0.00358859542757,0.00379371643066,-0.00523626850918,0.00371858500876,0.00639334321022
1765470653.7724326,4.143026351928711,0.03598510702471984,-0.06731896159372425,1.3565420876208227,0.00148598337546,0.00552192796022,-0.00462245941162,-0.00569075392559,-0.00170022272505,0.00625327276066
1765470653.9735835,4.34417724609375,0.03565494162857726,-0.06732770841342949,1.356416386417371,-0.0104742590338,0.00416834373027,0.00149059295654,-0.00467896461487,0.000596791564021,0.00418648170307
1765470654.1733902,4.5439839363098145,0.035647056175037106,-0.0672380763979915,1.3562648525513454,-0.00972398556769,-0.00636267941445,0.0127601623535,-0.0026524066925,0.0029377641622,0.00627413392067
1765470654.37254,4.743133783340454,0.0358255961589917,-0.06723991980480853,1.3562207772353048,0.00213340390474,-0.00818693079054,-0.00278472900391,-0.00927746295929,-0.000162422657013,0.0059179966338
1765470654.5731723,4.943766117095947,0.03555855600306241,-0.06735954567202354,1.3559206389804528,-0.000497128348798,0.0041174935177,0.010066986084,-0.00852793455124,0.00214204215445,0.0049464404583
1765470654.7734065,5.144000291824341,0.03528571514938379,-0.06739635139052627,1.35572276611146,0.0025870744139,-0.0187888965011,-0.00343990325928,-0.00356882833876,0.00430271029472,0.00549033284187
1765470654.9723222,5.342916011810303,0.03551045681706206,-0.06731741363134064,1.3556745628957294,-0.00482172472402,-0.0222737677395,-0.00201320648193,-0.00762939453125,2.23517440645e-06,0.00904574990273
1765470655.1756637,5.546257495880127,0.03536832307744669,-0.06727474895843974,1.3555350132546093,-0.0141273606569,0.0183060988784,0.0173835754395,-0.00484883924946,0.000948459084611,0.00585988163948
1765470655.3728817,5.743475437164307,0.03518062015486654,-0.06743312798070458,1.3553527198779933,0.00157464528456,0.00306132715195,0.00350666046143,-0.0164017099887,-0.0123307127506,0.0070385648869
1765470655.572938,5.94353175163269,0.03562242193495387,-0.06730197561939659,1.3553379393339435,0.00810188986361,0.00587143003941,0.00830745697021,-0.00408291816711,-0.00239163660444,0.00976696703583
1765470655.7726898,6.1432836055755615,0.03585140385443025,-0.0672736836940037,1.3554653715921037,0.0117983780801,0.00528832897544,0.00207710266113,-0.00159293413162,0.00233426713385,0.00788494944572
1765470655.9739807,6.344574451446533,0.035636490915650056,-0.06724058143389186,1.3554681679112484,0.00329515896738,-0.00194313470274,0.00394916534424,-0.00691264867783,0.0028558075428,0.00922456476837
1765470656.1736035,6.54419732093811,0.03581595468360777,-0.06729041999697917,1.3554003904615057,-0.018106540665,-0.00174709130079,-0.00812816619873,-0.00417232559994,0.00172182917595,0.00603869603947
1765470656.3727713,6.743365049362183,0.0359877493798639,-0.0672688109414467,1.3554258236499162,-0.0066967215389,-0.00292167533189,-0.00252151489258,-0.00631362292916,0.00308081577532,0.00546947168186
1765470656.5730648,6.9436585903167725,0.03584185392520879,-0.06729888385581857,1.3552117054982737,-0.00681846868247,-0.0200198255479,0.00449180603027,-0.00634789466858,0.00426247669384,0.00481382012367
1765470656.7729673,7.143561124801636,0.03585650131120423,-0.0671796657851455,1.3549790783770552,-0.0096395034343,0.0015338184312,-6.29425048828e-05,-0.0173062086105,-0.0039204955101,0.00650808261707
1765470656.9732285,7.343822240829468,0.03574610496164204,-0.06717427288393808,1.354835001362082,-0.00649699941278,0.0168074853718,0.0101594924927,-0.00363588356413,0.001011043787,0.00196024798788
1765470657.1733055,7.543899297714233,0.03572135836945032,-0.06711597878438977,1.3546375279672527,-0.0167855527252,0.00346635933965,0.00826740264893,-0.0060632834211,0.000872463162523,0.00618621846661
1765470657.373361,7.74395489692688,0.03574101582724647,-0.06716203898768054,1.3544095613779419,0.000446138437837,0.0184132009745,0.00809192657471,0.000155717134476,0.00137463223655,0.00679418444633
1765470657.5724523,7.9430460929870605,0.03568788992468859,-0.06711947834450971,1.3542239390499633,-0.00981711782515,-0.0136445974931,0.018045425415,-0.00143498193938,-0.000491738377605,0.00535771250725
1765470657.7732656,8.143859386444092,0.035730463051427026,-0.06710854273928357,1.3542363227490322,0.0104409065098,0.00281459651887,0.00440311431885,-0.00730156945065,0.00036284327507,0.00505819963291
1765470657.9733741,8.343967914581299,0.035978740405238865,-0.06707828673258674,1.3542500380286462,0.00249245204031,-0.00405362807214,0.00888919830322,-0.00460445927456,-0.000220537185669,0.00630095601082
1765470658.173149,8.543742895126343,0.03595182167228305,-0.06708366298903734,1.3543228754844598,-0.00151452841237,0.00124659854919,-0.0152225494385,-0.00310391187668,-0.000655651150737,0.00557079911232
1765470658.3729947,8.7435884475708,0.03598154088557265,-0.0670833508998471,1.3541981063873896,0.00042028259486,-0.0151269137859,0.0146293640137,-0.00411272095516,-0.00286847376265,0.0027634203434
1765470658.573329,8.943922758102417,0.03608465931521836,-0.0672020779501942,1.3542950454510685,0.00659239012748,-0.00834243837744,0.0133666992188,-0.00420063827187,0.000841170724016,0.00600889418274
1765470658.7735686,9.14416241645813,0.036289602044667565,-0.06723225905548535,1.3543112907337178,0.00869630649686,-0.00789582263678,0.00287818908691,-0.00705569982529,-0.000208616271266,0.00568255828694
1765470658.9739313,9.34452509880066,0.03603669328727251,-0.06723416071895125,1.3542123542992215,0.00756946392357,3.66009771824e-05,0.00681495666504,-0.00879168510437,0.00271424674429,0.004493445158
1765470659.1731062,9.543699979782104,0.03592035475952808,-0.06723818875009999,1.3540668125456485,0.00193687155843,-0.00817382242531,0.0116243362427,-0.00760555407032,0.00607594894245,0.00527277588844
1765470659.3728182,9.743412017822266,0.03589541259144381,-0.06724966530992255,1.3539534950412657,0.00292324693874,-0.00420864671469,0.00252342224121,-0.00667721033096,0.00288710021414,0.00571385025978
1765470659.572999,9.94359278678894,0.035792231743960054,-0.06719373060465247,1.3537008942118718,-0.00334189971909,-0.00490162055939,0.0198135375977,-0.00533163594082,0.00164285302162,0.00402107834816
1765470659.772576,10.14316987991333,0.03568089912682713,-0.0672078453584299,1.3535874435494344,-0.00379559351131,-0.00335576478392,0.00601387023926,-0.00534504605457,-0.000515580177307,0.00507906125858
1765470659.9738297,10.344423532485962,0.03587965832912031,-0.06720863182318931,1.353570665634567,-0.014622695744,0.00391725916415,0.0113859176636,-0.00717938086018,0.000456720677903,0.00630393717438
1765470660.1746933,10.545287132263184,0.03593696622682745,-0.06742461834878394,1.353539772965922,-0.00328958267346,-0.000663241371512,0.00722408294678,-0.00901520252228,0.00830963347107,0.00722631718963
1765470660.3726082,10.743201971054077,0.035733217758679575,-0.06746146984036791,1.3533850433065884,-0.00157264294103,-0.0320852026343,-0.00148582458496,-0.00175833713729,0.000553578138351,0.00647976994514
1765470660.573532,10.944125890731812,0.036194535516130145,-0.06737523751650899,1.3535211308382915,-0.00963410176337,-0.00886358320713,0.00638198852539,-0.00656843278557,0.00107511889655,0.00500306487083
1765470660.7758803,11.146474123001099,0.03606935030013961,-0.06736013239970119,1.3535006244978978,-0.00208724522963,-0.0197405926883,0.00481796264648,-0.0118479151279,0.00155940675177,0.00561997340992
1765470660.9735203,11.344114065170288,0.03599486085221225,-0.0673527129993518,1.3533948970026217,0.00123066129163,-0.000843079760671,-0.0101022720337,-0.00422149896622,0.000629574118648,0.00704899523407
1765470661.172951,11.54354476928711,0.036023864340958896,-0.06733633455864782,1.3533018195225235,-0.00811094604433,-0.0070083187893,0.0129270553589,-0.00511556770653,-0.000737607420888,0.00437572645023
1765470661.3745468,11.745140552520752,0.03590224942530475,-0.06740628831034363,1.3531890346503586,-0.000117032323033,-0.0271261893213,-0.00473785400391,-0.0200673937798,0.00419989181682,0.00720247626305
1765470661.5733182,11.943912029266357,0.03577825847061554,-0.06740556010223306,1.3528900948179972,-0.00137225724757,-0.00611641444266,-0.00043773651123,-0.00560581684113,0.00168159627356,0.00398829625919
1765470661.7725723,12.143166065216064,0.03578151668176169,-0.06737065188600701,1.3526983472195113,0.00794626586139,0.00970517285168,-0.000247001647949,-0.00330060790293,0.00196918845177,0.00355020188726
1765470661.9732735,12.343867301940918,0.0359972327300581,-0.06730243751139815,1.3524884901256131,-0.00539290485904,-0.00363755971193,0.0110740661621,-0.00424981163815,-0.00133812427521,0.00386461615562
1765470662.173759,12.544352769851685,0.035697036218557326,-0.06732764183440224,1.3523844936850455,0.00931252725422,-0.00701460521668,-0.000510215759277,-0.00710636423901,7.45058059692e-07,0.00574365304783
1765470662.3727477,12.743341445922852,0.03584356417397133,-0.06733020512695143,1.3524024700224035,-0.00756722874939,-0.00524290371686,0.0060920715332,-0.00508725596592,0.0006489456282,0.00867620110512
1765470662.5730376,12.943631410598755,0.036030667885306206,-0.06731141319650956,1.352605269739413,0.0098826829344,-0.0128214946017,0.00651550292969,-0.00453740451485,-0.000177323861863,0.00664517376572
1765470662.7728586,13.143452405929565,0.03597145416294398,-0.06734436149262088,1.3524785032715254,0.0062815612182,4.0652230382e-05,0.00813770294189,-0.00569522334263,0.000392645597458,0.00414624810219
1765470662.9728074,13.343401193618774,0.035836448540433774,-0.06738339344734735,1.3525942176208894,-0.00385167077184,0.00229917932302,0.0196580886841,-0.00730156991631,-0.00309348176233,0.00676885340363
1765470663.1728013,13.543395042419434,0.036111956716391676,-0.06738215757415399,1.3525747765449319,-0.00882520154119,0.00444808974862,0.00966167449951,-0.00649839639664,-0.00313073443249,0.00520870136097
1765470663.373515,13.7441086769104,0.03589323628949051,-0.06740712470937349,1.3525512075692845,-0.0130795873702,-0.00859566498548,-0.000528335571289,-0.00275373482145,0.00165328383446,0.00391528056934
1765470663.57326,13.943853855133057,0.035766931713604296,-0.06742604979786986,1.3524011384418586,-0.0148495081812,-0.0204061865807,0.00649452209473,-0.00948608107865,0.00170990859624,0.00568106910214
1765470663.7728417,14.14343547821045,0.035881609926856635,-0.06746225214393813,1.3523028677976348,-0.0360728241503,-0.0155842397362,0.0117034912109,-0.00513344956562,-0.000679492950439,0.00670030759647
1765470663.974986,14.345579862594604,0.035879013344793806,-0.06745938092338788,1.3523131209678314,0.00712623586878,-0.0166179612279,-0.00296211242676,-0.00552981998771,-0.000524520874023,0.00574663234875
1765470664.1731026,14.543696403503418,0.03563289148698925,-0.06754205543047803,1.3521282975881799,-0.00839877128601,-0.0037242192775,0.0154886245728,-0.005483627785,-0.000487268029246,-0.00171959435102
1765470664.3741794,14.744773149490356,0.03577482965071206,-0.06755152629710462,1.3520934101778999,-0.00954675488174,-0.0106718856841,-0.00839996337891,-0.00407695770264,0.00343099306338,0.00468418048695
1765470664.5738623,14.944456100463867,0.03576951997328872,-0.06761661145743264,1.3521096554605494,0.0127104688436,0.00622088555247,0.00929069519043,-0.00698417564854,0.00162348151207,0.00460073398426
1765470664.772672,15.143265724182129,0.035756557868920597,-0.06749546675615846,1.3520701075183617,-0.0029495335184,-0.00421465374529,0.00124835968018,-0.0238984823227,-0.00593215227127,0.00860765669495
1765470664.9731348,15.34372854232788,0.035996812449948574,-0.06744679748723725,1.3519966042722755,-0.007737101987,0.00257883220911,-0.000540733337402,0.000879913626704,0.00194534659386,0.00810995791107
1765470665.1735146,15.544108390808105,0.0360487191240699,-0.06743569127325379,1.3520221706187403,0.0268506705761,0.00956065487117,0.0179252624512,-0.0026494266931,0.00217482447624,0.0067226588726
1765470665.37293,15.743523836135864,0.036058110928101635,-0.06753992490160597,1.3519021952116321,-0.00501750037074,0.00162133947015,0.00271511077881,-0.00447928905487,0.000476092187455,0.00775083899498
1765470665.5729356,15.9435293674469,0.0360931647859498,-0.06750792951782218,1.3519582547525784,-0.0229871831834,-0.01105889678,0.00673675537109,-0.00339448475279,0.000173598513356,0.00423565506935
1765470665.7737052,16.144299030303955,0.036129055042827825,-0.06749992755098434,1.3517971335066286,-0.000661669764668,-0.00310211908072,0.0111255645752,-0.0111579904333,0.000520795583725,0.00471994327381
1765470665.9727404,16.343334197998047,0.03599426996334539,-0.06757048051392542,1.3516140411816857,0.026651378721,-0.00559890177101,0.00846385955811,0.00529363751411,0.0126250097528,0.00134184968192
1765470666.1767998,16.547393560409546,0.03625114433405114,-0.06745678850251426,1.3514816820755087,-9.83825884759e-05,0.000491458922625,0.00751972198486,-0.000722706317902,0.00118836772162,0.0059463083744
1765470666.3726883,16.743282079696655,0.03629911036199699,-0.06747461919825018,1.3513312134739193,-0.0079768942669,-0.0187327153981,0.00775146484375,-0.00687241600826,0.000191479906789,0.00244751572609
1765470666.5727253,16.943319082260132,0.03599449466756237,-0.06757428384085719,1.351193261729453,-0.00941045582294,-0.00567263923585,-0.00646114349365,-0.0130712995306,-0.000452995300293,0.00705197500065
1765470666.773702,17.144295692443848,0.03599541845156549,-0.06742300796856228,1.351204580164086,0.0136862741783,-0.012831017375,0.0104684829712,-0.00455379625782,-7.15255737305e-05,0.00905320048332
1765470666.9734194,17.344013214111328,0.03623467850837389,-0.06738931065839437,1.3512844749967883,-0.00295857898891,-0.025097746402,0.0138664245605,-0.00293105840683,0.00207796716131,0.00563785433769
1765470667.172619,17.543212890625,0.036167612621985125,-0.06743659841250009,1.3511790138176212,0.00856531597674,0.00321455299854,0.00967597961426,-0.00449270009995,-0.000135600566864,0.00179484498221
1765470667.372246,17.742839813232422,0.0361157059478638,-0.06743552066449646,1.3511780817112398,-0.0154855661094,0.00307701993734,0.0090913772583,3.79979646823e-05,0.00784024596214,0.00302568101324
1765470667.5736132,17.944206953048706,0.03644642894335961,-0.0674186886541693,1.35119139751669,-0.014057662338,-0.00628028064966,-0.00256729125977,-0.00472515868023,0.00189468287863,0.00173673056997
