timestamp_abs,timestamp_rel,roll,pitch,yaw,acc_x,acc_y,acc_z,gyr_x,gyr_y,gyr_z
1765983232.264942,0.03539013862609863,0.06083202548813084,0.16034947851064577,2.7233203012074743,-0.260459525404,-0.0932363975939,-0.373809583163,0.0548865947187,-0.144518520756,0.0511835379169
1765983232.464238,0.23468613624572754,0.03632449361613681,0.15938413254976247,2.7286732549985335,-0.0719720403524,0.0597327504161,-0.104016072726,-0.149681787634,0.0387560910748,0.0271196489797
1765983232.6627874,0.43323564529418945,0.04209852646505123,0.15632064841357388,2.741970950953517,-0.116869447646,0.013521596216,0.185731165433,0.138604302263,-0.0136281979068,0.0937144247458
1765983232.8633,0.6337482929229736,0.048153406295671324,0.15300666068734972,2.7561149995029277,-0.0655878427298,-0.0486195642647,-0.127143628573,-0.137492622876,-0.0378410965933,0.0160644737647
1765983233.0647948,0.8352429866790771,0.023382496114246865,0.15100769197313624,2.753835067293711,0.0901180823474,0.122435380131,0.442965738797,0.00284204289914,0.0292238182591,0.00536097061048
1765983233.2638762,1.0343244075775146,0.04109214285624551,0.11861915071105479,2.7646459034227786,-0.00541909168006,-0.228144678861,0.0413744378328,0.0108029884998,-0.36612267427,0.0834877801702
1765983233.4640603,1.2345085144042969,0.02764040383814679,0.06254074709422851,2.773460966630941,-0.280719650802,-0.00328785331515,-1.22163654087,-0.0941019390464,-0.149520825668,0.0397260276244
1765983233.6625626,1.4330108165740967,0.0376032686701872,0.04674926709449465,2.7807678817137913,0.251174824419,0.210580136985,0.161047213101,0.224202532625,-0.0783603303863,0.0533903961645
1765983233.8626707,1.6331188678741455,0.06116248632870684,0.014105082133414312,2.7898801536996065,0.180463628951,-0.107484046012,0.290107004666,-0.0657822821975,-0.269680839105,0.0305796948836
1765983234.064561,1.8350090980529785,0.016853353066564897,-0.04161130946599964,2.789772561991567,-0.0543906110199,-0.0688955743012,0.104718439603,-0.272795196319,-0.217015635295,0.031591487454
1765983234.26491,2.035358190536499,-0.012267491618583929,-0.06735710721515044,2.804292382570788,0.0725847725896,0.242241081208,0.240446321988,0.0567209164858,-0.0923897811009,0.0761712802217
1765983234.4633021,2.233750343322754,0.02877795853361192,-0.099203740968482,2.807849833154916,0.076590197268,0.0785004947189,0.0123522210359,0.273854736543,-0.245582681222,-0.0233677259072
1765983234.6634934,2.433941602706909,0.05787618715544109,-0.14942908659223497,2.8059560593037607,-0.0726340765925,-0.185352075487,0.00504802944652,-0.0493924987256,-0.19710921876,0.0380079311893
1765983234.8639073,2.6343555450439453,0.013098016089579254,-0.17809533592109109,2.8087097678709028,-0.0427106263907,0.0505277927819,-0.190311200595,-0.286443140054,-0.0682484098508,-0.0211563917234
1765983235.0637026,2.834150791168213,-0.021845889615973973,-0.18398301916952461,2.80290141353344,0.0277738963394,0.12126015535,-0.165324933505,-0.0109862365514,0.00653382010919,-0.0103217574193
1765983235.2654257,3.0358738899230957,0.018573994399135273,-0.16544886607641587,2.805085205627305,-0.0528757291706,0.120553899914,-0.00847030398854,0.341614786839,0.202105630116,0.00572157871137
1765983235.4635165,3.233964681625366,0.06805891674141357,-0.10539944376411843,2.803382913058526,-0.019600579408,-0.165170225888,0.0627281594514,0.0507753568947,0.341637093501,-0.0434917422368
1765983235.661648,3.432096242904663,0.028736548459255794,-0.05175911419098925,2.8007298719805895,-0.0479792597564,-0.0053060069826,0.303419344449,-0.349625583434,0.212695855574,-0.011108539196
1765983235.861655,3.632103204727173,-0.022164343345104004,-0.011966729185351513,2.8019115165562574,0.149495514217,0.166828777999,0.388778917813,-0.0524189133882,0.120289292114,0.0168601976351
1765983236.0680804,3.838528633117676,0.011677970742673167,-0.008409870010239177,2.805723831656706,0.0468911846308,0.0131349073577,0.354676477933,0.279384527659,-0.0508781299724,0.00817729100744
1765983236.264212,4.03466010093689,0.03600473951538077,-0.03328031323666209,2.803211671800434,0.0771851782827,-0.199012461692,0.405421488309,-0.0994797606707,-0.208364021106,-0.0307154884918
1765983236.4643266,4.234774827957153,-0.008983154446027514,-0.09285277588129394,2.7930655606794503,0.0205940027861,0.0159147981408,0.00280212643139,-0.233398001337,-0.348834287448,-0.0571814502015
1765983236.6625128,4.4329609870910645,-0.025616363958983736,-0.16446604312087892,2.781966836836545,-0.0421657579811,0.131730366856,-0.101553685641,0.0588801021934,-0.31747035317,-0.0725028204157
1765983236.862507,4.632955312728882,0.009751692802353943,-0.2117744200802897,2.764548698042991,0.022001836556,0.00373287162217,-0.369609601474,0.21047707305,-0.229607116504,-0.099469436927
1765983237.0678566,4.838304758071899,0.04040051575996273,-0.2608603904883011,2.7438380931937716,-0.0643712858529,-0.121094707042,-0.261044270969,0.0123065158971,-0.250480663104,-0.089631705208
1765983237.2658532,5.036301374435425,0.01945484325205739,-0.29989833732722765,2.7259453790939654,-0.124949497995,-0.00795435310868,-0.356845624423,-0.223406802559,-0.128739666267,-0.0758555816843
1765983237.463638,5.234086275100708,-0.016611887579478776,-0.2840944403389113,2.7078350847330994,-0.347147596893,0.198844608277,-0.151569135165,-0.151362638617,0.331744182782,-0.091175443156
1765983237.6638324,5.434280633926392,-0.016891146027206105,-0.16707537506742495,2.685573188548909,0.246074961606,0.0269113140035,0.0173857140779,0.103944208777,0.5904269702,-0.100946171804
1765983237.863593,5.6340413093566895,0.006504546258301564,-0.13684788916140192,2.6656538088595525,0.240287216487,-0.329073104649,0.443465464139,0.0152688676737,-0.265878122373,-0.074633693917
1765983238.0609682,5.831416368484497,-0.009224451404950904,-0.2304917487221255,2.655183857350015,-0.0327835659356,0.00195252186092,-0.219060666537,-0.123005713963,-0.460983436628,-0.0470993059113
1765983238.2631347,6.033582925796509,-0.022260714406456647,-0.29567546265522987,2.6451173747456243,0.120426880303,-0.0331906337437,-0.199230916476,-0.0144894995481,-0.27526874475,-0.0568193408086
1765983238.4643292,6.234777450561523,-0.009362241903335383,-0.33348019946188157,2.6302335000453896,-0.0373208354087,0.0370730211812,-0.301832921481,0.0737350697875,-0.0540028922989,-0.0950542377665
1765983238.6635423,6.433990478515625,0.005508627520193359,-0.3505561553448743,2.613789012946368,-0.0950745324464,0.00314701198073,-0.31141925571,0.0132750913747,-0.0697668381764,-0.0489530178144
1765983238.860892,6.631340265274048,0.008191666611096517,-0.33870552125769876,2.6097343501867227,-0.0437576490314,0.120411094636,-0.0412700247527,0.0496428611934,0.219608504252,-0.00369595632729
1765983239.0619636,6.832411766052246,0.03862399173698732,-0.28620632708334415,2.611901896997938,0.0752490927605,0.011225327276,0.287002794766,0.243523408031,0.281428981499,0.0169153337942
1765983239.2615385,7.031986713409424,0.0675007639500142,-0.26409083818008083,2.6207795444917172,0.166671948615,-0.282781842738,0.512522928739,0.00286290499048,-0.112148713393,0.0672067565487
1765983239.461703,7.23215126991272,0.03188384726837622,-0.3084491150867132,2.638247750713765,-0.142692683157,0.119029920906,-0.012480504489,-0.206338967824,-0.16760189466,0.114741460757
1765983239.6633108,7.433758974075317,0.013419460673449119,-0.31188725605400547,2.6652945484285007,0.0791434814362,0.153891396135,0.0293276238679,0.135558504915,0.0388916916416,0.131046318786
1765983239.865053,7.635501146316528,0.05696451221290131,-0.3075565233578595,2.693724858329533,-0.0101719406759,-0.0129393261072,-0.0405080389739,0.294728253341,0.0147160505147,0.139168941753
1765983240.0647354,7.835183620452881,0.07827888480956591,-0.3223950910300494,2.7250481601227174,0.024830395463,-0.164854574591,-0.0446927618743,-0.0226955708802,-0.148459862991,0.165107393043
1765983240.264024,8.034472227096558,0.03422579992207288,-0.35929888043992725,2.758711847881864,-0.0203730211453,0.0832924660149,-0.116738088107,-0.217648978972,-0.154326450153,0.161034905689
1765983240.4636726,8.234120845794678,0.003519140075579486,-0.3814753224426397,2.7870193860566435,-0.018835544479,0.211557206124,-0.110538251376,0.061952714181,-0.0425483734145,0.104785987513
1765983240.6637943,8.434242486953735,0.04396187370075242,-0.37617063844633813,2.8032478907912592,-0.0517296063574,0.0699141550663,-0.0244147848845,0.329938147521,0.0800516865419,0.0519837265478
1765983240.8624637,8.632911920547485,0.0948299649312176,-0.3649825655488607,2.8118371179389827,-0.0138127644406,-0.13558848539,0.0224602151155,0.132411372221,0.0145372337864,0.026748610066
1765983241.061205,8.831653118133545,0.08013076380782294,-0.37293553022265075,2.8118267316107315,0.017072370383,-0.00597247445551,-0.0526616644622,-0.2268772681,-0.0771786683037,-0.0425559530391
1765983241.2646892,9.035137414932251,0.04940636949309396,-0.39158564733647566,2.7774735514453632,0.0682612453727,0.236856725425,0.165804140592,-0.133072938466,-0.107347566707,-0.300657472236
1765983241.4633865,9.233834743499756,0.07029829816184474,-0.4099416183079013,2.6882320885812443,-0.00946260326073,0.0179135970626,0.0938246178865,-0.0569131110549,-0.0987779163553,-0.504576942547
1765983241.6624856,9.432933807373047,0.08093898326439156,-0.41457022557197265,2.567698482908694,-0.108526615319,-0.0474834997353,-0.0850045752288,-0.33597907021,-0.0270809699579,-0.574764332397
1765983241.863696,9.634144306182861,0.044909339031629344,-0.4010710614805245,2.4398009705059653,0.0304334295122,0.0976279195252,-0.0597751211882,-0.453051592851,0.0705924219654,-0.617159745319
1765983242.0640934,9.83454155921936,0.02636494109070218,-0.3780837535049102,2.300679565689098,0.155294017973,0.0459370467666,0.0423605370759,-0.243046518111,0.0872206426428,-0.670014164074
1765983242.2633288,10.033776998519897,0.047600342638667525,-0.36652057436789515,2.155645410620037,0.0293507297663,-0.111935827523,0.0685217309236,-0.133446987414,-0.0163923670335,-0.659125945194
1765983242.4619532,10.232401371002197,0.05117324787949624,-0.3738949340053518,2.0196719953696975,-0.0575191507907,-0.123229223877,-0.0906713080169,-0.323293801093,-0.107153859062,-0.598487159832
1765983242.664253,10.434701204299927,0.021712515179631443,-0.3899637156535901,1.8970233071594065,0.0536159892707,0.0606275427941,0.0354053902864,-0.353654827619,-0.0762264841034,-0.539623043163
1765983242.8636098,10.634057998657227,0.020445370649404132,-0.3909589056634391,1.7906575853280233,0.0563315396337,0.156514834971,0.121723406339,-0.0615920831203,0.0658076814578,-0.447951039894
1765983243.062883,10.833331108093262,0.047816974148588653,-0.3709954506580416,1.7064042231856225,-0.118697075066,-0.126933280021,0.246152155423,-0.0729065199137,0.0448640807734,-0.342866531236
1765983243.2620723,11.032520532608032,0.029964640228810614,-0.3791734191544297,1.6436514926298127,-0.0615026484104,-0.146958488613,0.0815918374299,-0.300304289603,-0.132949274106,-0.247756904586
1765983243.460929,11.231377124786377,-0.00811762553130581,-0.42397720962191865,1.5943419997825596,0.0304846857814,-0.184089842826,0.500943415189,-0.213376816058,-0.306640159412,-0.210225349887
1765983243.662219,11.432667255401611,-0.0030896603569459486,-0.4922799678894534,1.5516077185086576,0.0128883701889,-0.12056303361,0.273888819241,0.0633698146105,-0.325369458718,-0.178555867298
1765983243.8625798,11.633028030395508,0.0361701467862099,-0.5377963869751339,1.5165250985207168,-0.119705883679,-0.056210692614,0.0417721200227,0.0823106880546,-0.124625455661,-0.114418304188
1765983244.0713491,11.841797351837158,0.03462230923827744,-0.5439705930673464,1.501509131030414,-0.13503806096,-0.134529713183,-0.0314843725921,-0.154301147604,0.0337984747456,-0.0145536881297
1765983244.262033,12.03248119354248,-0.002703452844836996,-0.5327113804792503,1.5064391748403687,0.0781396200089,-0.127467948585,-0.272523648715,-0.127561013842,0.0717517397569,0.0344823090003
1765983244.4647918,12.23523998260498,-0.005480638321315007,-0.5062531746549357,1.5123508598281266,0.0724461694388,-0.0791074443754,-0.438394315219,0.112478088892,0.194368917422,0.0181595788912
1765983244.6620386,12.432486772537231,0.02026525565533611,-0.46522834319524187,1.5185432419947789,-0.0559278930397,-0.117263916522,-0.380000836825,0.130019735849,0.204221565203,0.0409106699393
1765983244.8636878,12.634135961532593,0.025246199131624934,-0.4294370893307446,1.5334621372633483,-0.0904368440481,-0.158261108786,-0.284935719943,-0.0141050514519,0.141797635631,0.083504163997
1765983245.06372,12.834168195724487,0.003411131208322659,-0.41857758393275574,1.557851899158512,0.00557413521692,-0.263504180699,0.0231373238801,-0.0671576519251,-0.0439401381447,0.129076385276
1765983245.2625077,13.032955884933472,-0.006695150049905026,-0.4481936330196318,1.5876916870664683,0.0772092362074,-0.137860674053,0.158087961697,0.103024799681,-0.217243667765,0.142487445252
1765983245.4646933,13.235141515731812,0.018674757595691944,-0.4852531174847384,1.6219407376332142,-0.0158935020538,0.163640108317,0.37474178555,0.267575387216,-0.0945459865763,0.174715646879
1765983245.664897,13.43534517288208,0.04140723642509391,-0.4701406104049203,1.668359235959132,-0.105811668453,-0.0153475176689,0.143954508328,0.132424760914,0.192683610992,0.226285585539
1765983245.8620949,13.632543087005615,0.020251355202802655,-0.4416247797433832,1.7237479266267088,0.0240127389459,-0.141902703434,0.124977343106,-0.0425528582871,0.0844311378167,0.252429643051
1765983246.0627513,13.833199501037598,0.0033610551973764376,-0.4341400320787428,1.776481179371368,0.14936363894,0.0129653405252,-0.158712155795,0.124050345576,0.0282805784808,0.220770710485
1765983246.264063,14.034511089324951,0.028575256604548665,-0.4179742447877983,1.819822395057699,0.0250923280744,0.146747690052,-0.2930171561,0.269552771306,0.183655012326,0.176357784645
1765983246.4628963,14.233344554901123,0.05345569344699183,-0.3756736592974157,1.8567515177874463,-0.0929126719804,-0.0786863897142,-0.238564259982,0.0786375592709,0.194784704523,0.152174660342
1765983246.6623268,14.432775020599365,0.035361045157530205,-0.33379644984132845,1.890993910451467,0.00190649378582,0.0790111053589,-0.107563741183,-0.0860895623207,0.255044925885,0.153612637298
1765983246.8612683,14.63171648979187,0.018381657992377308,-0.280367912315077,1.9227321327424864,0.123485254231,-0.0801819596585,-0.0550086569548,0.0270527064115,0.246347177701,0.135921978729
1765983247.0626051,14.833053350448608,0.030744732126959863,-0.27618887993252467,1.9425271428089363,0.0831053872733,-0.0695270184573,-0.107769734836,0.130238775468,-0.179461743756,0.0598038596676
1765983247.2637813,15.034229516983032,0.06047440456562523,-0.29024371258541787,1.9547410653583124,0.0538809281914,-0.122387591391,0.345893137479,0.165766138887,-0.0624980442955,0.0534991820918
1765983247.463744,15.234192132949829,0.07377692750008465,-0.2723470037439764,1.9698188181859049,-0.192822648105,0.366411950797,-0.199301488376,0.0262584745199,0.375499982314,0.0877077517674
1765983247.6636548,15.434103012084961,0.0525781485782971,-0.20334726292965427,1.9919817779355988,-0.00658026466609,-0.144003916174,-0.248116261935,-0.205374877596,0.233305681424,0.0638137621448
1765983247.8656294,15.636077642440796,-0.002340606769063732,-0.1938283595348977,1.9943051196705839,0.175856249514,0.653342750281,-0.0105044913054,-0.155156474257,0.0212233848141,-0.0256997557714
1765983248.063436,15.833884239196777,0.05933497109323482,-0.11674641583251108,2.0015628994313226,0.0312209968595,-0.0775462720689,-0.0130012106658,0.515412960505,0.479559320884,0.0279645410941
1765983248.2610242,16.0314724445343,0.12987727306757968,-0.028098502915748644,2.0197255249076083,-0.254435134944,0.031582548641,0.377687685513,0.118668038702,0.524952698426,0.0691692543791
1765983248.4638727,16.234320878982544,0.07829021156657716,0.022244371335860887,2.04643516642834,0.021983433622,-0.134067076832,0.552124254727,-0.512362684751,-0.0769909360244,0.124331870453
1765983248.6626048,16.433053016662598,0.006959278933837992,-0.020738457769151158,2.0756953173250405,0.232867183271,0.152757969112,0.454698793912,-0.0640105415821,-0.276723127885,0.184076601045
1765983248.8628576,16.63330578804016,0.04468844646396409,-0.08317117831106872,2.1180057565114563,-0.08129131597,0.0162904182303,0.0641300606965,0.310270104861,-0.292321663423,0.241299995558
1765983249.0633109,16.83375906944275,0.06644026823680942,-0.13947154392118552,2.1662816765396498,-0.208587659416,-0.122937399536,-0.130281217074,-0.0816311497927,-0.244402479453,0.261365958826
1765983249.2658727,17.03632092475891,0.010630272766862986,-0.1872967905139102,2.214652138786541,0.0132279192237,0.0202458150539,-0.230224378085,-0.287845398927,-0.207568343802,0.235594370739
1765983249.4653504,17.235798597335815,-0.022479505573574265,-0.21416638814761482,2.257585091877763,0.0566231628089,0.214486923427,-0.202375180698,0.0933941643,-0.0363256484999,0.189668977039
1765983249.6632323,17.433680534362793,0.026674868543154755,-0.19033888613759412,2.293185696697724,-0.0974524821015,0.0567884225252,-0.130051381564,0.368490491366,0.26046009727,0.15816644706
1765983249.8621185,17.632566690444946,0.06410670245995191,-0.13877466124293902,2.324916462137691,-0.0917924995394,-0.210970241218,-0.0029285025359,-0.00553688097148,0.197170350628,0.136143991129
1765983250.0650725,17.83552074432373,0.01873771014655329,-0.12166627305129621,2.3524450256936222,0.0731300582318,-0.057136412352,0.132285349393,-0.301096941972,-0.014209342262,0.130603739397
1765983250.2633305,18.03377866744995,-0.015910577395920035,-0.13820765760210435,2.3787607856891313,0.138743640962,0.103099976093,0.195292704129,0.0528302270234,-0.125425648017,0.131076106207
1765983250.4643028,18.234750986099243,0.026094854944276116,-0.15566875651299292,2.40482967065159,-0.0934506709547,0.0206302882958,0.0756447243928,0.299992803788,-0.0211354010536,0.124461495654
1765983250.6624074,18.4328556060791,0.05309223853722327,-0.15280792229100257,2.43014647892221,-0.106860062,-0.157952148109,0.12817310574,-0.0381331776023,0.0342708415554,0.122202479617
1765983250.8648274,18.6352756023407,0.009184673557059748,-0.15852895823422442,2.4554915167003855,0.000765286493146,0.00294433197411,-0.0777146887542,-0.259260441804,-0.069875601752,0.124310979025
1765983251.0650504,18.835498571395874,-0.02284423172664442,-0.1688459444286505,2.4796876667843004,0.0494088475732,0.120592560977,-0.132127530551,0.031248871541,-0.0244375002368,0.111093656497
1765983251.2634475,19.03389573097229,0.011850102495254757,-0.16956032074630745,2.5001876155912943,-0.0263467429997,0.040908486009,-0.137224919772,0.274234686351,0.0161569928021,0.0912676540778
1765983251.4607248,19.231173038482666,0.047444838998142114,-0.1603688696523329,2.517295229801745,-0.113359054443,-0.0890033725795,-0.067505605197,0.054813567853,0.0819262451695,0.0771905345486
1765983251.6649342,19.43538236618042,0.02722257258846477,-0.14642297693278078,2.533782860110426,-0.0854023004742,0.00983190572294,1.16753815813e-05,-0.177301060104,0.0739630646275,0.0810052318142
1765983251.8611135,19.631561756134033,-0.0013176414714688737,-0.1303731370177956,2.54948832000695,0.0864569489984,0.0889345224801,0.196591608548,-0.0265609283686,0.0551056488619,0.0701363248394
1765983252.0638547,19.83430290222168,0.02022056864448242,-0.13707928457061616,2.561985203422147,0.0407431219844,-0.0104144398269,0.174638979459,0.202320162511,-0.114357072933,0.0580544558928
1765983252.2626588,20.033107042312622,0.04622089593422293,-0.15784882018133178,2.573247977988201,-0.110054148254,-0.0656929422316,-0.0379540991546,0.0260796605855,-0.0549267680182,0.0646810022757
1765983252.463666,20.234114170074463,0.022575685220223556,-0.1598028979864206,2.586486551766985,-0.0266200191201,-0.0311873365339,-0.0671241354705,-0.191297735715,0.0241529549674,0.0656138149665
1765983252.6642118,20.434659957885742,-0.005382450900875148,-0.15767171996884152,2.5994444283668745,0.0530466904072,0.0528047125641,-0.0610034537078,-0.0224958934575,-0.0126462113841,0.0628779617713
1765983252.8635988,20.634047031402588,0.010903277987515133,-0.15901941263847613,2.6115460986763033,-0.00236171380148,0.0337573731172,-0.0608975958587,0.171562690592,0.003797966914,0.0555153017507
1765983253.0633774,20.83382558822632,0.04091861710528083,-0.15820365310707124,2.6230842440990716,-0.0342943983944,-0.06497724691,-0.0314729285003,0.102093462205,0.00707324214441,0.0550280263291
1765983253.2616613,21.03210949897766,0.03750124463330195,-0.1586944404064592,2.6350764584876987,-0.076359419045,-0.0479259599146,0.0109274316072,-0.0937145088553,0.00403936572534,0.0643278373049
1765983253.4622295,21.232677698135376,0.014375294155813777,-0.1507928248074373,2.6491163774384874,0.0236345120846,0.0466774705652,0.112133257413,-0.061654638195,0.0489186792837,0.0702451033161
1765983253.6655107,21.435958862304688,0.017704907147496143,-0.14553612764502757,2.6630710752343933,0.0302416962711,0.0285985329043,0.09668659451,0.0932481329203,0.0068527054244,0.066768654959
1765983253.8647375,21.635185718536377,0.03343896689741436,-0.15471454589441755,2.676224960490513,-0.0535599979432,-0.0501888800558,-0.00363326785572,0.0420805293381,-0.0625889488293,0.0662500945495
1765983254.0652077,21.83565592765808,0.02329656963779438,-0.16506850009372528,2.6898283873386375,-0.0636417399021,-0.0256679352519,-0.106743581271,-0.098563361609,-0.0250499398245,0.0724147123859
1765983254.2635617,22.03400993347168,0.004138829573213803,-0.1641074817696134,2.7049125317528464,0.0337675382523,0.0709922429028,-0.0443990301848,-0.0224437375307,0.0177022422866,0.0763054055737
1765983254.464327,22.23477530479431,0.017722729520853655,-0.15890611177885006,2.7205828379229815,-0.0385896059544,0.0346119779948,-0.0671203207732,0.145791117406,0.0594165547953,0.0829855886863
1765983254.6627877,22.43323588371277,0.04149859117286204,-0.1475706495597936,2.7381879306250596,-0.00531352114395,-0.076341058701,0.0822622704744,0.0812407772303,0.0221383161114,0.0855813784168
1765983254.8627353,22.633183479309082,0.03656707846311861,-0.1594994640697197,2.7550566592857306,0.0484415386943,-0.0159922499355,0.183750383878,-0.0664617751479,-0.144224952979,0.0835160774754
1765983255.063092,22.833540201187134,0.018235186213017552,-0.1832343380080761,2.7708297634739427,-0.0903738121362,0.0859051536623,-0.00968528506764,-0.0543918271303,-0.0386174396409,0.080328719096
1765983255.2651162,23.035564422607422,0.020259945977912763,-0.18222391804574323,2.787172251503214,-0.115187508878,0.00874251442435,-0.159717328525,0.0756141211152,0.0623371861146,0.0834773493574
1765983255.4643118,23.23476004600525,0.03056937961393496,-0.15713186392636883,2.805931291905623,-0.0649294647248,0.0128589723113,-0.129933125949,0.0581380169153,0.176509875731,0.103015737014
1765983255.662816,23.43326425552368,0.045331008978351364,-0.14125093500352195,2.8286696276088286,0.020411675903,-6.69244822638e-05,0.0372707772493,0.124066729403,-0.0435765535368,0.116876804607
1765983255.8635888,23.634037017822266,0.05068508212930631,-0.14984309162844459,2.854795237902506,-0.113721100506,-0.0705854926404,-0.0557277273894,-0.0511448641062,0.0162747101129,0.142001652496
1765983256.0635004,23.833948612213135,0.024721851841312755,-0.13857807002022074,2.88537791459654,0.0347769764392,0.0472325220558,0.0778181481599,-0.100023675406,0.0780251211689,0.149847143667
1765983256.2623196,24.03276777267456,0.01695534797512573,-0.13750650554373534,2.914790930939811,0.0457884987025,0.0314181823138,0.0334570336579,0.0633415024042,-0.0364895575477,0.142012083309
1765983256.4629312,24.233379364013672,0.03242196601435655,-0.14959004139061663,2.943078495406415,0.0227267221688,-0.0364379394945,-0.000306851840098,0.0997644181609,-0.0700469725563,0.14349772908
1765983256.663973,24.43442130088806,0.035935730353634086,-0.160848521609413,2.973078472453939,-0.0206936959969,-0.0474321130809,-0.057101018405,-0.018086636135,-0.0225539915993,0.160534211771
1765983256.8647804,24.635228633880615,0.021232611470604564,-0.15840723512765098,3.006801016073177,0.000733190323257,0.0245380188658,-0.0133397650481,-0.0496353876531,0.0459131262468,0.17061191179
1765983257.0677795,24.83822774887085,0.016188826755265576,-0.14646031112231234,3.0413273017094,0.00779149319514,0.0342327229533,-0.0209624838591,0.051502533561,0.0758316776918,0.170377918856
1765983257.262863,25.033311128616333,0.02978908589810935,-0.13797364896607045,3.0760075180566298,0.0448683631746,-0.01752041617,0.0587265420198,0.11623020128,0.00439550394354,0.174113684671
1765983257.4632962,25.233744382858276,0.03837483221106439,-0.1389361153840251,3.1112227634668566,0.000712132188522,-0.0386225614843,0.0753729272126,0.00419208810331,-1.59854099785e-05,0.176935934799
1765983257.6625676,25.433015823364258,0.03119039757122241,-0.1530535156777783,-3.137916958653266,-0.107681779084,-0.0276520770189,-0.0592486929656,-0.0222440619707,-0.0655095764233,0.170009860174
1765983257.86203,25.6324782371521,0.026590671040816218,-0.1566785439745669,-3.1038884178247783,-0.0877908746572,0.0354940056655,-0.0365769934417,0.0497665445566,0.00980462499124,0.168676221149
1765983258.062907,25.83335518836975,0.03459702793327311,-0.14879901596783585,-3.068957065386754,0.0381044131844,0.0302592146996,0.0736515450715,0.0886660333037,0.0322338565455,0.172696584241
1765983258.2625616,26.03300976753235,0.04340193992037406,-0.15863362046506452,-3.034271789033453,0.0184638724802,-0.000141229122557,-0.0232741904021,0.0517573322415,-0.130781140251,0.174250715749
1765983258.4643805,26.23482871055603,0.04046991607349451,-0.18620402893962346,-3.0006557718578186,-0.115939734396,0.00652099622818,-0.0750539374114,-0.0120337881833,-0.0875915997459,0.174502575176
1765983258.664657,26.435105323791504,0.03902686975326747,-0.19309990175297695,-2.9671678527306176,-0.11697216135,-0.0580815259513,-0.158615834689,0.0344868957311,0.0456985458003,0.166470834391
1765983258.8636434,26.63409161567688,0.042998982841499056,-0.17873870570618378,-2.9334269332998586,0.0922238026886,0.137420725435,0.187786333585,0.0913586582303,0.0424575320647,0.157451176421
1765983259.062215,26.8326632976532,0.06751348054421932,-0.201986903600085,-2.906017945676872,-0.0842936168285,0.00500966830584,0.127132647061,0.119843725419,-0.123406548126,0.141411566512
1765983259.260228,27.030676126480103,0.07739018795380646,-0.22508429999726046,-2.8798750248361094,-0.144779918608,-0.201181832343,-0.189402348971,-0.0446211357355,0.0246297921256,0.149093100207
1765983259.4624586,27.232906818389893,0.06120971582616371,-0.21503576044071437,-2.8493562640082373,-0.0470380912395,0.0837339240912,0.0269796777009,0.0231798946172,0.0116151179389,0.14122828223
1765983259.6627057,27.433153867721558,0.07775259424389581,-0.2364462273796496,-2.823395237069927,-0.107324009654,0.0251424996037,-0.0625026297332,0.14092439816,-0.143098469896,0.144837358372
1765983259.863952,27.634400129318237,0.09573081245945055,-0.2639180822491188,-2.7952538801471682,-0.0813449750514,-0.115090120226,-0.168550260043,0.0512968938112,-0.0438358337416,0.164284848945
1765983260.0614843,27.831932544708252,0.0825728742050472,-0.2625797772223267,-2.759178167388737,-0.0931584070297,-0.0684370953735,-0.190205342746,-0.0557314340711,0.0903081334398,0.182069355027
1765983260.2609649,28.031413078308105,0.08029755259346756,-0.2502903707008039,-2.7239836946350127,-0.0992741043539,0.347427782029,0.243279688382,0.236285899138,-0.014367295502,0.127106451766
1765983260.4615376,28.231985807418823,0.13680889049618908,-0.27232313516270656,-2.704794820032665,-0.1119077633,-0.370423737555,-0.207578427768,0.124013070321,-0.0326420814528,0.126212367194
1765983260.6617398,28.432188034057617,0.11895729726808921,-0.27903291959489074,-2.6784545589551274,-0.228044969854,-0.0873935628828,0.02317928555,-0.130250658536,0.0027668066758,0.127315068023
1765983260.86035,28.63079810142517,0.08921367444261995,-0.27198008672479074,-2.6530224358093064,-0.0866630951734,-0.169939402133,-0.244383580661,-0.132913510942,0.130791623072,0.131053769367
1765983261.0618706,28.832318782806396,0.05487124262896381,-0.241068243320023,-2.6213041872264626,0.0604921301036,-0.0172918398079,-0.239333875156,-0.106633823061,0.161373276191,0.149897777812
1765983261.2620323,29.032480478286743,0.04413710970047964,-0.2183532935001397,-2.5918056834122,0.0322300178139,0.0194897673878,-0.162942655063,0.064742219007,0.0814687869714,0.125562676565
1765983261.461233,29.23168110847473,0.06148693841207335,-0.20554002654744147,-2.569552575659607,-0.0163738428475,-0.0959413085279,-0.0497672629119,0.118462387776,0.0975680015252,0.0911618632839
1765983261.6613228,29.43177103996277,0.06433153983498185,-0.17448372329829373,-2.553716887185778,0.0830583815603,-0.0688965428766,0.231411211514,-0.072700868988,0.19545671709,0.0467116919921
1765983261.8622808,29.632729053497314,0.027405689880542938,-0.1418876801754031,-2.5481008130790186,0.151922600451,0.0920050930086,0.45800804379,-0.233725856686,0.093544702904,-0.00391947304671
1765983262.0613198,29.831768035888672,-0.008362659238133719,-0.14263486330873845,-2.5539208853252777,0.0822434445052,0.0368496313545,0.27735065701,-0.11925212636,-0.0524591394498,-0.0489485511913
1765983262.2628715,30.03331971168518,-0.01425173700509901,-0.1534303196825109,-2.5663882076523747,0.06620927352,-0.0272087711987,-0.0167129111052,0.0155370876439,-0.0391896479561,-0.0692022057607
1765983262.4660661,30.23651432991028,-0.005106646240186517,-0.16326507398255088,-2.581449981513427,0.0915857796697,-0.00968893954126,-0.134780652499,0.0366103149265,-0.0657241605951,-0.0759554343655
1765983262.6629229,30.43337106704712,0.0020194288914143627,-0.1871264147831724,-2.597852390667225,0.0311061349837,-0.0283584181365,-0.174261815524,0.00504890463912,-0.153460707588,-0.0831690641477
1765983262.8614545,30.63190269470215,0.0029970879411872235,-0.21027714098117672,-2.6155357803053514,-0.0656908544572,-0.0594773549732,-0.212610013461,-0.0156026181519,-0.0553007946147,-0.0909981491401
1765983263.0635204,30.83396863937378,0.00712815351557074,-0.20113056415157002,-2.634788038141643,-0.106865344462,-0.00936751776902,-0.126497037387,0.0168543507591,0.147364694552,-0.0947770836188
1765983263.2622106,31.03265881538391,0.01791744820843048,-0.15250578666533307,-2.6544320469742857,-0.0303238796862,-0.00953002238242,0.0276539254426,0.0340011216015,0.300325084405,-0.0999522494509
1765983263.4637148,31.23416304588318,0.02611621224786179,-0.10636454005364952,-2.6733231801667627,0.165673347297,0.0763835314515,0.279124491239,0.0308688919306,0.0923317260311,-0.0944432901575
1765983263.664218,31.4346661567688,0.029210316494802484,-0.12242961824349698,-2.691346921792201,0.0981844534306,0.0225836908299,0.228497736478,-0.024702757293,-0.211967121883,-0.0791919516756
1765983263.865287,31.635735273361206,0.019456253895197288,-0.16162441694825075,-2.7065538379326624,-0.0659840832324,-0.0993896011409,-0.0501105856658,-0.0863503698945,-0.0956367366745,-0.0613537716105
1765983264.064282,31.83473014831543,0.004215782185075158,-0.1573893916037795,-2.716628842652541,0.00763364705726,0.0323191782314,-0.0111243796111,-0.0378202494919,0.08802380033,-0.0367519488915
1765983264.2637115,32.034159660339355,0.008771372802122767,-0.1458837866805806,-2.7215168085172725,0.0574281384377,0.0287053788866,-0.078660733676,0.0575181286097,0.0247028059529,-0.01668753255
1765983264.462551,32.232999324798584,0.018247465882356338,-0.15096288428779567,-2.723649201602099,0.0462411848037,-0.0195930671093,-0.0921657156707,0.0280779063016,-0.0594209619595,-0.00746222470262
1765983264.6673226,32.43777084350586,0.016359493769247623,-0.15456402735855762,-2.725005283229167,-0.024934708965,-0.0350410450396,-0.0614793371917,-0.0446017642259,0.03354515128,-0.00340538368401
1765983264.863526,32.63397431373596,0.009990873796567481,-0.1364754044710623,-2.725803698923973,-0.0104814613098,0.0126318450871,0.0222361016511,-0.00676622583865,0.125477876441,-0.0051517995431
1765983265.062488,32.83293628692627,0.016657525422065406,-0.1214996257460845,-2.7258910506077276,0.0731124823122,0.0447114970389,0.12949203732,0.0614013712168,-0.00789571933287,0.00102920258577
1765983265.264889,33.03533720970154,0.02462338770179088,-0.12466031526206098,-2.7253208678183416,0.0395435971348,-0.0437971834239,0.0756561684846,-0.0011201758623,-0.00643987728121,0.00582737788717
1765983265.4684474,33.238895654678345,0.01983767473935088,-0.12920048893318486,-2.723007113463281,-0.0322601607861,-0.0292446311709,0.0362064767121,-0.0307660323322,-0.00374425489294,0.0195900847779
1765983265.6646225,33.435070753097534,0.015154421698365174,-0.12424660150909557,-2.717165469612192,-0.0540339144738,0.00288957020672,-0.0116403174163,0.000153873419773,0.0496473460661,0.037611552851
1765983265.8607843,33.631232500076294,0.017946075109554233,-0.11806228372711923,-2.7072380040167037,0.038217874351,0.0308639056835,0.01647590878,0.0382658339352,-0.0186126400514,0.0570024339126
1765983266.061683,33.832131147384644,0.02412168352252818,-0.12484270018483938,-2.6936159350409485,0.0163123143046,-0.0142178829905,-0.0401599478484,0.0259172379285,-0.039875101371,0.0795985621975
1765983266.2640846,34.03453278541565,0.022637867951082306,-0.13261600135358992,-2.676356520648363,-0.0254619567515,-0.0262943316397,-0.020106084323,-0.00542214109896,-0.0109981420248,0.0966976446674
1765983266.4625537,34.233001947402954,0.01713776618741775,-0.14180322467933396,-2.6559481845828676,-0.0132308624545,0.0250196930807,-0.0429990362883,-0.00333002086132,-0.0708054416611,0.10412737854
1765983266.6614912,34.431939363479614,0.018942367834542076,-0.15348699507945915,-2.6339608603070643,-0.00937153737523,0.00316321699353,-0.0676448416472,0.0542294460595,-0.0419642478957,0.113050186412
1765983266.863939,34.634387254714966,0.0258435357611567,-0.15292981184514412,-2.611191898251323,-0.0370089131267,-0.0494519356784,-0.0180509161712,0.0405263382256,0.0782978124188,0.111232252197
1765983267.0628254,34.8332736492157,0.02375401124750212,-0.13619653821541738,-2.58951323434586,0.070027427855,0.0772294964496,0.111968271756,-0.00537743854671,0.0401940456794,0.102811583655
1765983267.266415,35.03686332702637,0.022075212752965017,-0.14142194323501867,-2.570095594205874,-0.029729399723,-0.00887964630095,0.0290844369172,0.0115331458639,-0.020663037969,0.0898922992514
1765983267.4636354,35.23408365249634,0.02256371764007501,-0.1461623699753597,-2.5529733326094277,-0.0654109286936,-0.0412627790269,0.0126793313264,0.0162419121027,-0.0104840510322,0.0798697633312
1765983267.6615288,35.43197703361511,0.02258895941378192,-0.1410764147283377,-2.538806114558533,-0.0578788052173,-0.00356329569189,0.059278719449,0.0133689682245,0.0505831464396,0.0635023204253
1765983267.8646061,35.63505434989929,0.022647861046953908,-0.13257114373397888,-2.527471967275265,0.00472303490623,-0.00964212009279,0.0352089333772,0.0029508209102,0.0240441746281,0.0492612806724
1765983268.0652905,35.83573865890503,0.020576568783793363,-0.13576756954283287,-2.5190361382063298,-0.0266479271324,0.0255294874165,0.00780891659252,-5.17635360249e-05,-0.0619616024925,0.0359739189611
1765983268.2639854,36.03443360328674,0.01778997849956736,-0.14943353074230403,-2.5127380285444016,-0.056657777992,-0.053592119008,-0.0793912482024,-0.013498576054,-0.0479306802883,0.0295425740645
1765983268.4611053,36.23155355453491,0.015007374634598067,-0.15039797788631942,-2.507636210844137,-0.0434031019779,-0.0170614082512,-0.0989730429412,0.00620970556178,0.0218700914846,0.0211800442652
1765983268.6637096,36.434157848358154,0.018526690000272742,-0.14469287097536762,-2.503814042047655,-0.0122903956892,0.00838470029118,0.0123426842927,0.040430970794,0.0279587096737,0.0131512967513
1765983268.864636,36.63508415222168,0.02543217099949653,-0.1431527815617316,-2.501689638446099,-0.0124284349242,-0.000680677234806,0.0498669076204,0.026347881487,0.00504817433817,0.00885976139615
1765983269.064186,36.83463430404663,0.027655092836034255,-0.14561502379232116,-2.5011676588724434,-0.0413676778646,-0.00814250448314,0.0807192254304,0.00942463091473,-0.0127758505552,-5.70925309221e-05
1765983269.2617624,37.0322105884552,0.031725913493356114,-0.14775570596604048,-2.5009269091099,-0.0603611971112,0.00513976289364,0.108274691129,0.0443782846689,-0.00490952709528,0.00594360508184
1765983269.4646134,37.23506164550781,0.04297634181104418,-0.15008973363489955,-2.4989327340856486,-0.101459590611,-0.0605558488664,0.065288774991,0.0621702711344,-0.000297617356542,0.0171984502689
1765983269.6628268,37.43327498435974,0.05067545313748999,-0.14696010323513614,-2.492543810630549,-0.0761013532849,-0.0191776041087,0.0770809579133,0.033013170889,0.0162359661625,0.0428895478712
1765983269.8635626,37.634010791778564,0.05797156577316876,-0.15211994455765102,-2.481556406921209,-0.0505285019846,-0.0191416550573,0.0560753274202,0.056148711896,-0.0651161783172,0.068608955817
1765983270.0641515,37.83459973335266,0.0656244837382693,-0.16359031253067682,-2.4640290785229615,-0.214395968136,-0.279077414065,-0.109989888644,0.0368234015316,0.0684317535923,0.121674978511
1765983270.2658832,38.03633141517639,0.05808413842468425,-0.11308020840736711,-2.4286660276722354,0.140607120576,0.0753179121617,0.00537418606273,-0.0700499896645,0.293647933678,0.179478087799
1765983270.463573,38.23402118682861,0.047005650444874425,-0.11210272009638875,-2.394512318272514,0.0729148109583,0.111062679798,-0.0151403021575,-0.0187855080455,-0.215467434449,0.167506479995
1765983270.6619406,38.43238878250122,0.05077903762032646,-0.15221883105787704,-2.3582621684626823,-0.0765431578131,-0.139892998725,-0.177388913608,0.073729109323,-0.111694250329,0.215051629917
1765983270.863981,38.63442921638489,0.05331492457743513,-0.15745136003339427,-2.311432611222511,0.00716010771229,-0.1440389041,-0.174110181308,0.0164475481272,0.0837427190707,0.244561889546
1765983271.0626526,38.83310079574585,0.038604450792488865,-0.1363712582276834,-2.2616144546070527,0.0695560296206,-0.036121274918,-0.131339795566,-0.074995662713,0.103708784954,0.236628526227
1765983271.2637875,39.03423571586609,0.02052767689124979,-0.12052536651792786,-2.2160143456841164,0.00811329308435,0.00514698064359,-0.0754153799773,-0.0149261017084,0.0731613896058,0.21393997349
1765983271.4612906,39.231738805770874,0.025229914317678022,-0.10875868026173872,-2.17605427931775,-0.0331307350518,-0.0794202271995,0.00140690090648,0.103678938305,0.0964876524375,0.187147685664
1765983271.6625974,39.433045625686646,0.040951041091552544,-0.08009950495452814,-2.1388788141871706,0.0590218027262,-0.060810725778,0.10561489346,0.0652250166297,0.179597441034,0.176469513552
1765983271.8643448,39.6347930431366,0.036900689323921466,-0.058179242403924504,-2.1036091071326517,0.0773345549731,0.0749822858575,0.269008867764,-0.0502180118799,0.0109326438249,0.169039809482
1765983272.062529,39.832977294921875,0.021630789423679637,-0.07264480939831355,-2.0715570313071665,0.0580751990108,0.00606833806666,0.0864212441682,-0.0773083303809,-0.0919293277695,0.158160441892
1765983272.2629158,40.033364057540894,0.008884466642585964,-0.08858545970860547,-2.0419762358152203,0.018478518459,0.00190618670019,0.0299980569123,-0.0132422723561,-0.0574867875113,0.140442976134
1765983272.4621902,40.232638359069824,0.015017479042280856,-0.10239521496218411,-2.015593763634405,0.0409408082394,0.0355243947211,0.011798136258,0.0797849412322,-0.0773545020058,0.126246654765
1765983272.6621914,40.432639598846436,0.028223269932224255,-0.12376673317017692,-1.9905704357159113,0.0864041094808,0.00743738225134,-0.0396716665984,0.0632833990514,-0.125230442805,0.127498337405
1765983272.8620594,40.63250756263733,0.029125871401706353,-0.14601805993379105,-1.9647592115889179,0.0287222956447,-0.0163263861236,-0.0791070532561,-0.0019620933324,-0.0815894343688,0.13605160393
1765983273.0619688,40.832417011260986,0.02659420597104438,-0.1538549440735672,-1.9364406212956147,0.011734461519,0.0517161603871,-0.0566966604949,0.0345062672407,-0.00988651539969,0.150507220404
1765983273.263913,41.034361124038696,0.03681979580581031,-0.16391977884703324,-1.905479908884844,-0.000442581144131,0.0813312385085,-0.0187766623259,0.110700395262,-0.0810470097496,0.159985863941
1765983273.4721775,41.24262571334839,0.04908535871319854,-0.18171377289418172,-1.8724693613830394,0.0495982189803,0.0174270508665,-0.0618798804046,0.0514354746103,-0.0568996817602,0.171288394706
1765983273.6646655,41.43511366844177,0.04143785861644062,-0.18323580274667564,-1.8379276294124938,0.014950271803,0.0545442368689,-0.000142819857677,-0.0365998443901,0.0325885004566,0.165852451103
1765983273.8652306,41.63567876815796,0.03574317548444295,-0.18213425274079162,-1.8059270857541014,-0.0310884489538,0.141745832175,0.0683739114045,0.052067283845,-0.0245239251091,0.148689293639
1765983274.061425,41.831873178482056,0.04945082347735227,-0.19408037779780324,-1.7785087770672998,0.021665480095,0.049249202371,0.0438463616609,0.0977617095471,-0.0623251982762,0.128724702971
1765983274.2641716,42.03461980819702,0.05350531146705138,-0.20093220858462954,-1.7538437774734763,0.0110898000328,0.0980671983066,0.0406296181916,-0.00455787374972,-0.0175174009784,0.120487355964
1765983274.46355,42.23399829864502,0.04541314253084509,-0.21036735556310315,-1.7315083780432,-0.0169175843568,0.0542784821096,-0.00607181308277,-0.022534634614,-0.0374789983763,0.109003016131
1765983274.6628594,42.43330764770508,0.04257911468970205,-0.2138707439771024,-1.7106619519783866,-0.0331307462277,-0.0125534121093,-0.0599381994963,0.0367339927018,0.0326510853336,0.102094860153
1765983274.8610773,42.63152551651001,0.05086963087047039,-0.20584201237029964,-1.690947635692966,-0.0437205339642,0.1175778251,0.0344679284333,0.088178742981,0.0105273322405,0.0878970114158
1765983275.0627034,42.8331515789032,0.06234607417973292,-0.21229092352895376,-1.6749367112194096,0.0547381882696,0.0317408501956,-0.0324485373259,0.0257518331766,-0.0420342759027,0.0747035307453
1765983275.2632492,43.03369736671448,0.049671487179611354,-0.21517607574064793,-1.6606781467431253,-0.0100513155432,0.0236295427981,-0.0321185660125,-0.0877138186931,0.0202771629409,0.0614802328513
1765983275.465354,43.2358021736145,0.03246918718943501,-0.21030646904268122,-1.64971098305807,-0.0584973188908,0.0655573572818,-0.0313069891692,-0.0275697407067,0.0192012991027,0.0381614056991
1765983275.6657093,43.43615746498108,0.04013083741007858,-0.2143619473954107,-1.645137802834186,-0.0142953059496,0.0482831414643,-0.0433862280608,0.0892576019526,-0.0397409946455,0.00598831042807
1765983275.8623295,43.63277769088745,0.05382847358176488,-0.2192557555697835,-1.6461134518995366,0.0466639940767,0.0214892238233,0.00350784542553,0.0366192556232,-0.0144894868864,-0.0147652836873
1765983276.0620124,43.83246064186096,0.04708757177671878,-0.21715718463080105,-1.6513186002500964,0.0145716426103,0.00903325004908,-0.00720954654225,-0.0835995931864,0.021722579302,-0.0367519507541
1765983276.262343,44.03279113769531,0.03471797289746553,-0.20957468230939788,-1.6602142240812336,-0.0813614706369,0.114871498555,0.0811588692903,-0.00989695980548,0.0115584916638,-0.0558343852295
1765983276.463987,44.23443531990051,0.0480716555725843,-0.21230771808857807,-1.674394092147306,0.0276813601284,0.00329206547173,-0.0238578390838,0.0714686031699,-0.00954974822539,-0.0774529861643
1765983276.6632204,44.43366861343384,0.0519858906801879,-0.2033695835485405,-1.689800079579251,0.0452411641507,0.00903678907486,-0.00390029666432,-0.0601734851241,0.0816431380079,-0.0769284578397
1765983276.863825,44.634273290634155,0.039218392647536196,-0.1926473141704748,-1.7065690728570984,0.00373109440788,0.0708478282991,0.018507235074,-0.0723656077623,0.00815506691274,-0.0896242471768
1765983277.0639765,44.8344247341156,0.03656075761671887,-0.1915504246964984,-1.7257069479245712,-0.00974705245808,-0.0224337164458,0.00617241146557,0.00523069880569,0.0246417130546,-0.0949841948583
1765983277.2641566,45.03460478782654,0.044162056029753115,-0.18546982871660225,-1.7452802498302722,0.00924275453671,0.0972775038186,0.0484030175447,0.0307556431055,-0.00599135232928,-0.102010107262
1765983277.464091,45.234539270401,0.05023298140594093,-0.19242963404087443,-1.7664696910434876,0.0530385692744,-0.0212001834211,-0.0123260092498,-0.0269573029816,-0.02688128881,-0.0977826329305
1765983277.661662,45.43211030960083,0.04622467845520869,-0.19705436307660837,-1.7868278265224349,-0.0239264386566,0.0417609032098,0.0381176400422,-0.0220309790909,-0.0484820232524,-0.0984963985517
1765983277.8628488,45.633296966552734,0.053420776908387375,-0.20946830566860603,-1.8074637297030773,-0.0167871060641,0.0362823515985,0.0379517007112,0.0521209317505,-0.072684470637,-0.0958752842977
1765983278.0629268,45.833374977111816,0.07069545038178121,-0.21717795728730366,-1.8265526026064927,0.0163296071021,-0.0306108478603,0.013959162259,0.0560786689878,-0.00267733244995,-0.0831914009883
1765983278.2635577,46.034005880355835,0.07570940873320861,-0.210312361286593,-1.8413768224983098,0.0241453592806,0.006066173673,0.0186445641755,-0.0313620825052,0.0398081167803,-0.0664931783809
1765983278.469495,46.23994326591492,0.07456875187119245,-0.2165012314095577,-1.8560945159465236,-0.0230420547397,0.0243358345556,0.0347540307283,0.00691005967223,-0.106824550851,-0.0723850937917
1765983278.6635833,46.43403148651123,0.07835771437783226,-0.23250276824027158,-1.8710311212363422,0.0342760999827,-0.0541152615246,-0.0812661719085,-0.0272702273667,-0.0513519794478,-0.0595030399396
1765983278.8633487,46.63379693031311,0.07247250287578542,-0.23403055717862278,-1.8820167938909735,0.0303382818727,-0.0485089827475,-0.108076817966,-0.0616308186889,0.0295739955471,-0.0491020331516
1765983279.0634472,46.833895444869995,0.060536635150159814,-0.21730252664729213,-1.88839320048895,-0.0460350121231,0.0333563223335,-0.0425393652678,-0.0506844182253,0.107502605693,-0.0297126403435
1765983279.2634983,47.03394651412964,0.06262689203311417,-0.2035702860261916,-1.8944086156011666,-0.0386547463806,0.107926387698,0.035199396634,0.0669758918941,0.0177216082082,-0.037307762204
1765983279.4626956,47.23314380645752,0.08802105264983362,-0.21207638925839106,-1.9042426042423932,-0.023313069609,0.0910849835578,0.130804293179,0.128087062693,-0.100805964394,-0.0493255580201
1765983279.661015,47.43146324157715,0.1036528428527036,-0.22784796212897657,-1.915337732817827,0.00233415711209,-0.0365091223416,0.0974447655915,-0.0143732704908,-0.0248562210037,-0.0429150710239
1765983279.8626435,47.63309168815613,0.09122550123147145,-0.22521328021780437,-1.9235286842245292,-0.0436281951936,0.025758662619,0.0729458260774,-0.0830691118479,0.0277530755119,-0.0492272029056
1765983280.0622542,47.83270239830017,0.08187552547360995,-0.2228025368647942,-1.9344279373017874,-0.0290380026074,0.0930710699263,0.0371830392121,-0.0326257046997,-0.0398885124161,-0.0664380515351
1765983280.265343,48.03579115867615,0.08533902472790685,-0.23978974290446,-1.9511371426131625,0.00592882941946,-0.0407488305267,-0.0597179007293,0.019248967363,-0.112348396404,-0.0813913556172
1765983280.464386,48.23483419418335,0.08553600710241024,-0.2437593010225208,-1.9641123297601375,0.0529785026936,-0.0275383439061,-0.131494290805,-0.0583197806716,0.0462215728329,-0.042754138483
1765983280.6653,48.43574810028076,0.07096574458766744,-0.2359169906920236,-1.9722733206045764,-0.0171801707567,0.0506120066944,-0.100761182284,-0.073983873868,0.0022974200982,-0.0477877507343
1765983280.8638577,48.63430595397949,0.07340031491005541,-0.23361773392014687,-1.9815416538302701,-0.0361800826015,-0.0539405007061,-0.0692250799895,0.0775244201779,0.0509079880284,-0.0386145959034
1765983281.0620644,48.832512617111206,0.09744214313117865,-0.2228384063157262,-1.987715660185401,0.0464322810201,-0.0205307934579,-0.0111367773772,0.0945460166097,0.0289511288719,-0.0349518867566
1765983281.2633975,49.03384566307068,0.09959485946407376,-0.21026630524449147,-1.9910399510160923,0.0581405927567,-0.0123100090918,0.051653139615,-0.0668208856821,0.0843625924752,-0.015510341747
1765983281.4625854,49.233033657073975,0.07758062893888236,-0.19443527730256993,-1.991483766811754,0.0566989054112,-0.0106097418961,0.0271542001008,-0.127052884245,0.0979792661236,-0.00407891593714
1765983281.6622334,49.43268156051636,0.06355304375289204,-0.19030319977898705,-1.9940314798685783,-0.0301817598613,0.0300805814418,0.0763399529695,0.00412503241227,-0.0520284884407,-0.0252586832627
1765983281.8625968,49.633044958114624,0.06854772747592999,-0.1974496926956738,-1.9990675174899182,0.0460818243353,-0.023059077203,0.0284912514924,0.0146877214559,-0.0437956006064,-0.0259813839926
1765983282.0636532,49.83410143852234,0.06325464903631628,-0.19105364528465776,-2.0010873920186887,0.0640580226807,-0.0731193903979,-0.0274818014861,-0.0732015703559,0.113366205172,-0.000113716477797
1765983282.2679853,50.03843355178833,0.046054248629011224,-0.17279566199659022,-1.999818662075375,0.0180393998651,0.105267536253,0.0450518059968,-0.0586222667932,0.0236329044418,-0.00251876412732
1765983282.4687135,50.23916172981262,0.04851574184554421,-0.18038530491866614,-2.00115010946236,0.0097820145218,0.00126886031064,-0.00921035525807,0.0681724625886,-0.0712971799805,-0.00461088727535
1765983282.663887,50.434335231781006,0.06008769693058891,-0.18679345306788525,-2.0007903163990903,0.0378758479981,-0.0361578721699,0.00957035305492,0.0341039396137,0.0119399623216,0.0133703438209
1765983282.8634782,50.63392639160156,0.058772507309820886,-0.18714687118929557,-1.9970066302803604,0.0659349654941,-0.0435562763509,-0.0632894110442,-0.0411491763532,0.00742788978082,0.0250319981591
1765983283.063551,50.833999156951904,0.043783312910851815,-0.18166016013248706,-1.9899837413277668,0.0319716130523,0.00776606927099,-0.0366389822722,-0.0648956556558,0.0505160912142,0.0395099645124
1765983283.2625499,51.03299808502197,0.045108385355977554,-0.1837406548655706,-1.9833543344262325,-0.012487864946,0.00735028030755,0.0153648782014,0.0793915505767,-0.0468711965515,0.0298733835683
1765983283.461132,51.23158025741577,0.06305593976829353,-0.18667960293128436,-1.9769425077857579,0.0379721914558,-0.182897600919,-0.0745608877898,0.052176066047,0.0841569564508,0.0398601380752
1765983283.6624632,51.43291139602661,0.0523671970916384,-0.16625269131718584,-1.9657606933168421,0.0624478628068,0.0789881948236,0.0537311959504,-0.0937055681586,0.0375520772503,0.0508720999227
1765983283.875331,51.64577913284302,0.03622543650715347,-0.17617491381427813,-1.957235781509444,-0.0539758185716,0.101100024194,0.0678913522004,-0.00431349470614,-0.111281473262,0.0377486472593
1765983284.065028,51.83547616004944,0.048336914739534595,-0.19443719144960342,-1.9502523073409836,0.00569478805646,-0.107303443938,-0.0799701285125,0.0955175723195,-0.000233542246993,0.0439579611288
1765983284.266623,52.037071228027344,0.05651321043786296,-0.18787822515890176,-1.9389895327749296,0.0726062675147,-0.00079318100182,-0.0525081228972,-0.000360216641415,0.0200283116863,0.0598381323383
1765983284.464148,52.234596252441406,0.04854066320768247,-0.18782392996217778,-1.9263706765818072,-0.0275356861623,0.100332852811,0.0703785348176,-0.00870934098362,-0.0461902246608,0.0600392905639
1765983284.6641302,52.43457841873169,0.052522301258000295,-0.20006055595984662,-1.9152656943103403,-0.00623848092274,-0.0295574996766,0.00463318111889,0.0517692680717,-0.0220309664293,0.0593180818127
1765983284.8618877,52.632335901260376,0.06014453877510529,-0.19532905080915733,-1.9024897116129031,0.023796811807,-0.00174229183761,0.0170481133699,0.029317677325,0.052155211495,0.0607754079268
1765983285.0621943,52.832642555236816,0.05213285556046824,-0.18663051754344284,-1.88905899076147,0.052452908936,0.111722577721,0.0126793313264,-0.070067871058,0.00609274713484,0.0601823417113
1765983285.263308,53.033756256103516,0.03620798031844584,-0.19341675134366912,-1.8782557446415091,-0.00716402929739,-0.0249738764164,-0.0447690558196,-0.0509034652948,-0.0169109237178,0.0503475753234
1765983285.4618244,53.23227262496948,0.03730985489708772,-0.1933590772613121,-1.869475302527518,-0.0175290441932,0.0686519820097,0.0472500252961,0.0877660031676,-0.00377852849501,0.0373925057815
1765983285.6641762,53.434624433517456,0.05315561344878875,-0.19037210907219285,-1.862863738805287,0.0757868682174,-0.0304624173936,-0.0421340536834,0.0414025265038,0.0510003826783,0.028676827775
1765983285.8647208,53.63516902923584,0.04511544273286626,-0.18473391408362927,-1.8569651033068706,0.0430855249195,-0.0208704244491,0.0076858926057,-0.0799145285725,-0.00790317084479,0.0203381267951
1765983286.0646954,53.83514356613159,0.03026301830062957,-0.18444920551834298,-1.8533927390206384,-0.0444070602627,0.0622006397549,0.0671532082795,-0.0100891847849,-0.00695247676062,0.0100369540618
1765983286.2628207,54.03326892852783,0.040553127373991874,-0.18349124982948467,-1.8517591560079838,0.0271708537964,-0.0416726503667,-0.00820899722584,0.083401453054,0.0409197396801,0.00735027469854
1765983286.4621255,54.23257374763489,0.04661475665349964,-0.17245451106095105,-1.8498069257709011,0.104241149607,0.000139143675886,-0.0233438086272,-0.0303294320345,0.049389563428,0.0111157981322
1765983286.6618323,54.43228054046631,0.03074250172954692,-0.17087871864395116,-1.8476059562880052,0.0254469310073,0.0622180331353,0.0261251855134,-0.0804107521415,-0.0436316878332,0.00853342689733
1765983286.8633335,54.63378167152405,0.024352375690767092,-0.18399853208287434,-1.8462466788676286,-0.0172275052266,-0.00165332817999,-0.0767991614104,0.0103932064505,-0.0501181595756,0.00967783793966
1765983287.064727,54.83517527580261,0.035485980702168546,-0.1844593255304853,-1.8436532925981095,0.00358268815561,0.0251661086309,0.00065159084789,0.0936698432326,0.0163551735894,0.0128949930535
1765983287.262895,55.03334331512451,0.04621574854317852,-0.17796482438292038,-1.839262538908896,0.0494798963098,0.0932541902963,0.0168812203645,0.00810066268445,0.0272479224221,0.02652210124
1765983287.4637094,55.23415756225586,0.042406733265768264,-0.18213921287832188,-1.8344091941383356,0.00161494325384,0.0882840048376,0.0804369378328,-0.0216435451746,-0.0455971472694,0.0256950979696
1765983287.661272,55.43172025680542,0.04078362396633824,-0.19004750302482581,-1.8297702338355264,0.00086937296673,0.0779520053271,0.0659201073884,0.0110697192852,-0.0069599264099,0.0263194566236
1765983287.86758,55.638028144836426,0.04911612238497815,-0.19822810139279035,-1.8255744235381066,0.0177617018251,-0.127159107119,-0.0601079535247,0.0404756705523,0.00902380507601,0.0253911142812
1765983288.06623,55.83667826652527,0.04505858008240387,-0.18267259411039433,-1.8186748389439837,0.00569967749997,0.146789040774,0.0717976022004,-0.0358518060982,0.045680653231,0.0284443547593
1765983288.2708693,56.04131746292114,0.03756866838196219,-0.1829210503953419,-1.8137044482435145,0.0396517870156,-0.00307434016434,-0.0825326514006,-0.0350769457161,0.0279646720008,0.0236625758574
1765983288.4623775,56.232825756073,0.03814681568748317,-0.1875985266654162,-1.8095761490797282,-0.00456880581096,-0.0145012471971,-0.0684144568206,0.0511076490641,-0.0582869798674,0.0209460941718
1765983288.6639752,56.43442344665527,0.049207830833828556,-0.19670558884234884,-1.8074299075572333,0.0315300022392,-0.0466887835559,-0.0109651160003,0.0549178685308,-0.0364746601118,0.00875247303556
1765983288.8625078,56.63295602798462,0.053713266897483736,-0.19750105841519872,-1.8063225651759782,0.0595107023744,-0.0303503308591,-0.0451762747527,-0.0103037615061,0.0183429884927,0.00189793981771
1765983289.0626256,56.83307385444641,0.043801426567453554,-0.19169395243449686,-1.8057260170918006,-0.0171339305909,0.0147845860425,0.0670072961091,-0.0421147604227,0.0183921641873,-0.00430243323863
1765983289.2626204,57.03306865692139,0.04273640764158485,-0.1919413268102516,-1.8078835770489283,-0.00943748083428,0.00873466803166,-0.000724561190684,0.0284414946348,-0.0329654329254,-0.0140604596942
1765983289.4619017,57.23234987258911,0.04817776589726714,-0.19378656455054025,-1.8116614042132602,0.0512294788985,0.0213835419941,-0.0173261236907,0.013674443426,-0.0097702872737,-0.0248727450504
1765983289.663351,57.433799266815186,0.042223054213147655,-0.19246437164834315,-1.8160349805134428,0.00583541776522,-0.036167908102,-0.0231969427825,-0.0622268651366,0.0240411943958,-0.0248593321427
1765983289.8654764,57.63592457771301,0.034745253653882036,-0.18216727593830861,-1.8209057689891432,-0.0297883226396,0.0764053579274,0.0521004128694,0.0128369972356,0.0297319497184,-0.0322145434453
1765983290.064657,57.835105180740356,0.042732042554110644,-0.18003509923532074,-1.8273980230945384,0.0426115785865,0.0380238316807,-0.0146358084441,0.0289585630655,0.0143703417124,-0.0338134417667
1765983290.2657945,58.036242723464966,0.04055080126922726,-0.18038052787346082,-1.834410392560826,0.028912427011,0.049158655465,0.0234205651521,-0.0447626967668,-0.00294853428217,-0.0388917575016
1765983290.4628396,58.2332878112793,0.03136963871555775,-0.18020988582661399,-1.8422724435729034,0.0129423868982,-0.0475786585507,-0.0199477743865,-0.0501286049127,0.0480097084509,-0.0373926969602
1765983290.6611426,58.43159079551697,0.029442425547965098,-0.16665115015053214,-1.8498423458133992,-0.0229023796366,0.0584155361954,0.0817100930452,0.0282507579088,0.051690298991,-0.0432592878475
1765983290.8627937,58.63324189186096,0.03793491128849693,-0.16161404726475626,-1.8585475536265956,0.0739144255547,0.0693025555316,0.046939127469,0.0246744792223,-0.0064100740275,-0.044592938049
1765983291.0629237,58.83337187767029,0.03804400934702771,-0.17506114655689337,-1.8682140294352563,0.0789465700416,0.0730103369656,0.0135977196931,-0.0334214229822,-0.135922040863,-0.0471008146538
1765983291.2636628,59.03411102294922,0.02754053945845802,-0.1952552313126917,-1.8781039444593746,0.0164480247675,-0.0389289777872,-0.105513341403,-0.0690411587,-0.0292744208856,-0.0423562737538
1765983291.4654522,59.23590040206909,0.02402497956603928,-0.18492739273682354,-1.8851618539803026,-0.0430929417582,0.0258838556561,-0.0278737616301,0.0360336399883,0.111986365096,-0.0297364803388
1765983291.6651368,59.435585021972656,0.0427307026511872,-0.16446546055439049,-1.8901620720849808,0.0524230134813,0.0549393486086,0.0369636941194,0.10325128243,0.0915389917062,-0.0256997557714
1765983291.8626044,59.633052587509155,0.053469591818930684,-0.1636932603515652,-1.8949861220835504,0.113527784231,0.0155799355212,-0.0109336447478,-0.0222574748784,-0.0683005564644,-0.0239429088666
1765983292.0618787,59.832326889038086,0.032721702714450365,-0.17477114495894056,-1.89982761578726,-0.0236134919198,0.128961358577,0.0962154793977,-0.122409682417,-0.0891636722519,-0.0233185520752
1765983292.2626941,60.03314232826233,0.02006717680747766,-0.18705678976542364,-1.9054813736234437,-0.0339821613254,-0.0330212261674,-0.105574376559,-0.017547217825,0.0120085076631,-0.0242036791875
1765983292.4627907,60.23323893547058,0.026652067306915554,-0.17185786310823242,-1.9103116820505748,-0.0235774720879,0.0872987102571,0.0635788369416,0.0764068479896,0.0867244041727,-0.0291851392372
1765983292.6635177,60.43396592140198,0.044173103987087736,-0.1578106371092028,-1.9160280241723755,0.077476265016,0.09945470503,0.0606386590242,0.0408422428429,0.0414383000897,-0.0319418521955
1765983292.8625646,60.633012771606445,0.0394329477240449,-0.16306755065345108,-1.9237173691877612,0.055067876461,0.0358436288166,0.0358240533113,-0.0849406976938,-0.0579248816504,-0.0415933343007
1765983293.0635977,60.83404588699341,0.026149870026732268,-0.17613157086753709,-1.9335761252271255,-0.0382016802998,0.0385861176852,0.0278999734162,-0.0346671637833,-0.0534724146857,-0.0497129770352
1765983293.2641838,61.034631967544556,0.03225604483666081,-0.17835426175807403,-1.9445098662405003,-0.00126885053233,-0.0881724018749,-0.075526006198,0.0381287413895,0.0458982213603,-0.056212863548
1765983293.464454,61.234902143478394,0.03696518775657182,-0.15813372848369983,-1.9543997812646186,0.0369690415589,0.0999087508622,0.063088648343,-0.000117326782633,0.0849243588017,-0.0535038249924
1765983293.6623197,61.43276786804199,0.035837913279033316,-0.15520040634578888,-1.9659195508758653,0.0562575479178,0.055187292755,-0.00576472995289,-0.0295754332781,-0.0417615921034,-0.061092993839
1765983293.8632343,61.63368248939514,0.028475496254589977,-0.16765967261058834,-1.9790815587733095,-0.0286241936357,0.028818173692,0.0282843041658,-0.0374700647533,-0.0663261451556,-0.069018921478
1765983294.0617669,61.83221507072449,0.028899802314672252,-0.17403441473288375,-1.993548648762947,-0.00661338482515,-0.0254356522259,-0.0522592139006,0.00216851041318,0.0208121146278,-0.0712376894786
1765983294.2636583,62.034106492996216,0.03245151045769962,-0.16556744332395165,-2.008219071101812,0.0335573760001,-0.0602150518593,-0.0400846075774,-0.00696590139865,0.0587385445104,-0.072283758445
1765983294.4617178,62.232166051864624,0.028414803229465994,-0.1521214259410074,-2.0230211867565813,0.0124535356788,0.0618331175152,0.06326030972,-0.037100519681,0.0333320721255,-0.0769597502782
1765983294.664048,62.4344961643219,0.027879622283063156,-0.15283745008958882,-2.0393390405457694,0.00209273501768,0.0281881572533,0.0523817467927,-0.00155231046825,-0.0171061289294,-0.0817460032537
1765983294.8638747,62.63432288169861,0.03217364496805807,-0.15883758531505096,-2.057084614995349,0.0108141285507,-0.00598951765863,0.0158150124787,0.000723097777378,-0.0314976722731,-0.0878346177175
1765983295.0633016,62.833749771118164,0.033063357153983106,-0.15901601710808627,-2.074876395289841,-0.00113241177515,-0.00539654457537,-0.0130193304778,-0.02456566661,0.0146534628437,-0.0885036798551
1765983295.2661996,63.03664779663086,0.025650714575856555,-0.15296175313346827,-2.0913626940179766,-0.00375021983401,0.0215800044912,-0.0174882483245,-0.0604461763739,0.0289600639806,-0.0766200112536
1765983295.4682791,63.2387273311615,0.0237699922946372,-0.15236292471760712,-2.10682420835865,-0.0216151521401,-0.00313052126733,-0.0262754034758,0.0246059357435,-0.00505257917407,-0.0720840903356
1765983295.6627817,63.43322992324829,0.0358409675919085,-0.15289960161152855,-2.120390217793459,0.00709335516676,0.0193770307902,0.0279304909944,0.0672411400139,-0.0117238276436,-0.0631180653705
1765983295.8641078,63.63455605506897,0.04302092895335699,-0.1516161743479489,-2.1312448629224585,0.051426427546,-0.00495940597323,0.00391124966137,-0.0190015711576,0.0211265272663,-0.0438836427762
1765983296.0620136,63.83246183395386,0.03424751716852463,-0.15128744040089226,-2.1394098485085324,0.00905357870742,0.00804332400145,0.01159309628,-0.0570040081382,-0.0130619537814,-0.0347775487586
1765983296.2620718,64.03252005577087,0.029368185771389936,-0.15259248920357196,-2.145518074784738,-0.0244019943149,0.0352090721804,0.0206177163362,0.0156890785568,-0.0110473158567,-0.0222650381162
1765983296.4628148,64.23326301574707,0.03640362279002579,-0.15491335086979197,-2.1498439805014082,0.0398037788598,-0.00129127466647,-0.0453603338958,0.0231113483444,-0.00967789821165,-0.0163686495631
1765983296.6643732,64.4348213672638,0.03480324190602391,-0.15449420260372712,-2.152388897239088,0.0373331886856,0.00688769238474,0.00189518215648,-0.0293742713272,-0.00463087584662,-0.0079822753447
1765983296.8628697,64.6333179473877,0.027949463682650482,-0.15498189397834786,-2.1541810714946568,-0.00248655479864,0.011347935893,-0.0250794958831,-0.0295962949037,0.00970478814257,-0.00665160141726
1765983297.0621307,64.8325788974762,0.026902242163004075,-0.14628602387372344,-2.1549206313293716,-0.0248056779476,0.0660612996522,0.0723583626985,0.0308450519353,0.0589352547393,-0.00225352322523
1765983297.2622533,65.03270149230957,0.038381723140384974,-0.14551149340494435,-2.15596126152532,0.0324617681234,0.0344495320547,0.0218975472688,0.0505369457662,-0.0396217816307,-0.0072357272853
1765983297.4615617,65.23200988769531,0.03681074938048245,-0.15215393315106315,-2.157546774480299,0.026871411237,-0.014132514238,-0.0298125815154,-0.0592078824282,-0.0199388396724,-0.00798227499545
1765983297.664565,65.43501329421997,0.02101800437923081,-0.1519539297531982,-2.1587514553993965,-0.0261675025196,0.0572743866447,-0.0239837240935,-0.0656571049929,0.0274803879873,-0.00493424258967
1765983297.8653648,65.635812997818,0.022848372109901652,-0.14722145920661378,-2.160243491400113,-0.0437568331929,-0.0609394345578,-0.0271442007781,0.0668134729624,0.0646364278362,-0.0117388573832
1765983298.0623333,65.83278155326843,0.03423366040847781,-0.12549422590077045,-2.1609628112105437,0.0784131531744,0.0413167331222,0.0745375085115,0.0370513874352,0.109861474411,-0.0108850222438
1765983298.262684,66.033132314682,0.026293751465813,-0.10508498269602892,-2.1634166478389427,0.0756986980466,-0.0108930129704,0.0665028023957,-0.116754676843,0.135348413067,-0.0262689819916
1765983298.4633958,66.23384404182434,-0.002791544960195448,-0.09695070668627497,-2.1713001372977954,0.105531813684,0.270961117357,0.136037104154,-0.119757260823,-0.113381046875,-0.0576180430486
1765983298.6622322,66.43268036842346,-0.006492217174840988,-0.1555786584443642,-2.187843560831313,0.0113321301667,0.0685303512815,-0.0594317984343,0.035580644688,-0.324150543733,-0.111739075406
1765983298.8635485,66.6339967250824,0.004689824599034937,-0.19373408363230887,-2.2177114450887694,-0.0357876474829,-0.171601283937,-0.0554959845305,-0.0150140204221,0.00751729674799,-0.184793508275
1765983299.063753,66.8342010974884,-0.004880958942261813,-0.16113690866595495,-2.2610661097386053,-0.0011908871913,-0.0272071171698,-0.0592143606902,-0.132552932644,0.244863022046,-0.237077227457
1765983299.2635243,67.03397250175476,-0.02409533487249321,-0.11396584262787297,-2.3138680720393885,0.0443049465446,0.0729715604189,0.0042211938142,-0.100522864306,0.199754197078,-0.284729650839
1765983299.4636166,67.23406481742859,-0.024355061738397788,-0.09377425458559657,-2.3761476920275455,0.0669111703663,0.0894883315864,0.0252230096101,0.0301402270109,0.015905163178,-0.331116935833
1765983299.6655762,67.43602442741394,-0.012869453409915107,-0.10034698609018257,-2.4477222768522973,0.0432958436339,-0.0257220078406,0.0207416939973,-0.0138234195053,-0.0265907217546,-0.383589944465
1765983299.8658216,67.63626980781555,-0.018811579577289364,-0.10392573364065265,-2.5298003690163213,-0.00512284076304,-0.0423173714575,0.0277149605989,-0.106656182253,0.0151660646514,-0.427801689728
1765983300.0640292,67.83447742462158,-0.027532658166107067,-0.09677840848612523,-2.61704739054008,-0.0107919337554,0.0549443106953,0.0456783700227,-0.0335793790161,0.0621538943813,-0.43569480501
1765983300.2636323,68.0340805053711,-0.012929349567306668,-0.09369510044457238,-2.7023345918176496,0.0738500301866,0.0333043079677,0.0307094979524,0.0846680443049,-0.0265758187308,-0.412600985391
1765983300.4632423,68.2336905002594,0.009395802934556885,-0.1100647194274488,-2.782397203668702,0.072751755002,-0.0461839471158,0.0251285958528,0.0289540983051,-0.11365970604,-0.383496096952
1765983300.665894,68.43634223937988,0.010613258704508202,-0.13652798525783455,-2.8563864766538285,0.0490445961384,-0.0504694838223,-0.0622088980437,-0.0985469479799,-0.161112453861,-0.34924720846
1765983300.863553,68.6340012550354,-0.002040990223308159,-0.1637265831547048,-2.923768713290577,0.00100335489496,-0.0108868029114,-0.0973727774382,-0.0910546664834,-0.0915284865333,-0.318549326284
1765983301.0609431,68.83139133453369,0.0020489197594464373,-0.16897524089957383,-2.9837337799753465,-0.0454743112297,0.0150300826732,-0.104916341281,0.026043895936,0.0401687211559,-0.271567455156
1765983301.2623222,69.03277039527893,0.018439615035600158,-0.15073901230866088,-3.0351261311111504,-0.0421647372516,-0.0358584184345,-0.0772569250823,0.0230308830053,0.129009459095,-0.233664861543
1765983301.4644141,69.23486232757568,0.020652945331024394,-0.11741003396426679,-3.0772682585166735,-0.0195048897387,-0.0310009714362,-0.020274884677,-0.0554006431937,0.174134660439,-0.188731870277
1765983301.6649988,69.43544697761536,0.00982965164177951,-0.09131974384454664,-3.111131949673685,-0.00310498744712,0.0249749793525,0.0298921990632,-0.0543247719049,0.0794005057977,-0.149687847717
1765983301.8618453,69.6322934627533,0.009305179515791233,-0.08795707020464447,-3.1380059082336746,0.000910819615268,0.0344401387352,0.0308267998933,0.0293996374369,-0.043831359668,-0.119878082199
1765983302.063658,69.83410620689392,0.022436349880347373,-0.10141287470459476,3.1247673344548907,-0.10626642209,-0.0191757377383,0.0416157174348,0.0615950863123,-0.0591288954748,-0.0848886581494
1765983302.263409,70.03385710716248,0.029239580057874328,-0.09871866282068087,3.1106555101546696,-0.0777687932225,-0.0404423769709,0.072347872281,-0.0127415914774,0.0739437005685,-0.0615132103099
1765983302.4633222,70.2337703704834,0.017255374918166474,-0.09402221985021818,3.1008454899632536,0.0850063805608,0.00411106123062,0.0803396630525,-0.0851374004722,-0.0880997293426,-0.0374806175365
1765983302.6607764,70.43122458457947,0.009171422250042003,-0.1246935215519029,3.093799032035013,-0.0776261220546,0.0611346069578,-0.0232760977507,0.00142047118993,-0.171765279098,-0.0265714755638
1765983302.8612478,70.63169598579407,0.019854721050921988,-0.1428634291092945,3.0898716683754732,-0.0833202282758,0.00311518868836,-0.0786845755339,0.0682916681528,0.00163580845388,-0.00958414994021
1765983303.0648582,70.83530640602112,0.02816885614160797,-0.12578787270046532,3.088206926378065,-0.186412958321,-0.00103559868006,0.0667068886995,-2.04701661952e-05,0.17073569067,-0.00819238171753
1765983303.2640502,71.03449845314026,0.018795554837667653,-0.0719965127652042,3.087905456542668,0.0103262254177,0.0173245695274,0.0908424782991,-0.0725846622825,0.305345285611,-0.00512944768489
1765983303.4683952,71.23884344100952,0.00891336922249443,-0.05220151934351105,3.0880961388767174,0.0696567689209,0.0650062676373,0.151478998685,-0.00214984516947,-0.111075837238,0.00641299165945
1765983303.6628542,71.43330240249634,0.021356171742211234,-0.09183452456088055,3.091251984768461,0.0151399728982,0.0431934580061,-0.00912357089527,0.113421339846,-0.247351463957,0.0329862324164
1765983303.861771,71.6322193145752,0.04236866670693694,-0.14233695545129946,3.0999916805177743,-0.0374468712927,-0.0310610789951,-0.081517941928,0.0885587449432,-0.221050899549,0.0719155309365
1765983304.0610576,71.83150577545166,0.0449023607173355,-0.17194421610657826,3.1178178155903287,-0.0763245577784,0.00799738465282,-0.109170682407,-0.0190269012689,-0.0636350103452,0.116234564559
1765983304.2625153,72.032963514328,0.035280621853799016,-0.1698451125353778,-3.1368351826184755,0.0315909405379,0.0511470403376,-0.112332112765,-0.0113677044153,0.0721540636585,0.157886290328
1765983304.4628649,72.23331308364868,0.033691384634483436,-0.15356106424727697,-3.1000619879705527,0.0132168495236,0.0584677237872,-0.0255582403899,0.0661995451212,0.122783761399,0.191568889992
1765983304.6609306,72.43137884140015,0.04303163985436615,-0.1296247221724561,-3.057087090092162,0.0551019554166,0.0146117735508,0.0217792916536,0.0647764916778,0.115376394169,0.216330164449
1765983304.860963,72.63141131401062,0.040639309763580364,-0.11143529863770127,-3.0117662136095205,0.133726822319,0.00185603870483,0.0416510033845,-0.0419508551001,0.0735354087518,0.223600426094
1765983305.0631344,72.83358263969421,0.020605643012756462,-0.11133880066007792,-2.968658690308844,0.0522103701858,0.0652920085791,0.0406725335359,-0.0786494274378,-0.0462095849945,0.204804086463
1765983305.2621233,73.03257155418396,0.013350507687756684,-0.12113628734961362,-2.9299232785697504,-0.000540146031386,0.0814930315915,-0.00393844363697,0.051457837528,-0.0417928808166,0.181918912904
1765983305.461465,73.2319130897522,0.026927228023574983,-0.12301874276613614,-2.895739475449711,-0.0166565728234,-0.00320407339899,0.0124695229768,0.0988986606956,0.0390928573177,0.156451293604
1765983305.6611083,73.43155646324158,0.030655025210116225,-0.11951537931927211,-2.865583437162308,0.0274177958398,-0.00852038116721,-0.0355403494597,-0.0264372524559,-0.0143374931796,0.138431334274
1765983305.8626742,73.63312244415283,0.015602324822121769,-0.12331354637642951,-2.8390724674588963,-0.0551487485738,0.0296088199917,-0.0207145285369,-0.0544648428202,-0.00193823508757,0.124214136379
1765983306.0624638,73.8329119682312,0.013432448785249759,-0.1153229229403501,-2.814666726597192,-0.0710915679903,0.0420821107778,-0.00342632052906,0.0663724097669,0.0844624228047,0.115583391266
1765983306.264103,74.03455114364624,0.029232062869578662,-0.09749441598994986,-2.7913558112596193,0.0864730646042,0.0313220232579,0.0192835259675,0.0817965979934,0.0598263404534,0.110789665358
1765983306.4627154,74.23316359519958,0.03417631297947324,-0.10822312688890219,-2.7689354569905693,-0.0403910036059,-0.035179193705,0.0299055505037,-0.0152479686528,-0.0833671205475,0.114793629722
1765983306.662116,74.43256425857544,0.023862424790408964,-0.11106911398781538,-2.7449821871980697,-0.083923248467,0.00772966666552,0.0407364297151,-0.0315513309777,0.0731435082124,0.124360152857
1765983306.861878,74.63232612609863,0.023509732796514606,-0.09285335844778239,-2.7181537686927206,0.0704575722246,0.0869122858945,0.0539925027131,0.0481467883349,0.05705323063,0.140894481318
1765983307.0614448,74.83189296722412,0.034404681123542134,-0.10392598331200484,-2.689224382403408,0.0942558814911,0.0720437545184,-0.0130879950286,0.0706833157003,-0.143247436805,0.157588252203
1765983307.261705,75.03215312957764,0.04174550365661521,-0.14583297023803055,-2.657036618520383,-0.00737209840209,0.0233539178822,-0.0805604529143,0.0452485162079,-0.210705023332,0.178189152257
1765983307.4647133,75.23516154289246,0.04227853118760537,-0.17682091347094728,-2.620725748637698,-0.0970587189169,-0.0246586237249,-0.098607785678,0.0311967174769,-0.0506799408032,0.194018655793
1765983307.661819,75.43226718902588,0.04104853775458466,-0.1608464909490818,-2.5801969642205447,-0.0367404482187,-0.0220683474239,-0.0926406454802,0.0171136328265,0.18262832232,0.194690698163
1765983307.8651807,75.63562893867493,0.03294151753411198,-0.11914096383714219,-2.540544093485919,-0.0269071067543,-0.00132383742896,0.008720629239,-0.0294979509652,0.228818911986,0.178667434828
1765983308.0619795,75.83242774009705,0.022396866436592344,-0.08079263424011329,-2.505759481223958,-0.0527465696307,0.0251970867481,0.114017717862,-0.0270631049514,0.135907236414,0.151052632706
1765983308.2628572,76.03330540657043,0.020484600260617762,-0.07323252743900201,-2.4780474258689202,-0.035518972096,0.0835055041912,0.21011375668,0.0409689027131,-0.0732850023343,0.121253260748
1765983308.4622002,76.23264837265015,0.029110131703545063,-0.09025269841953595,-2.4574654517003522,-0.153829259691,-0.124019894391,0.0435860085725,0.0278171378434,-0.0290196110292,0.0922064421342
1765983308.662481,76.43292927742004,0.026500891303161522,-0.09212690635905763,-2.4404830060611347,-0.020178680201,0.0414924383018,0.108261339688,-0.0140111722737,-0.0613476746513,0.0776464877294
1765983308.8618968,76.63234496116638,0.026683975305726065,-0.11317000687037322,-2.4260625213905738,-0.134579686341,-0.0792451311049,-0.0365312170745,0.0254716894835,-0.0980969183876,0.0777254713343
1765983309.06336,76.83380818367004,0.035403106457996644,-0.12817119381662606,-2.4086787373750815,-0.121458044169,-0.0183012891707,-0.0277926993132,0.0928070585489,-0.0708456747963,0.0962029261158
1765983309.2645602,77.03500843048096,0.05083744823317246,-0.13638171945734034,-2.3856948582193707,-0.0383989232452,-0.0777226571139,-0.0916297507048,0.077156368947,9.42831828559e-05,0.137190052645
1765983309.462765,77.23321318626404,0.05711045344063766,-0.14617586887313505,-2.3558930203569477,-0.0338058377476,-0.00022670404581,-0.0475099158049,0.0361096340478,-0.084077913387,0.161616050975
1765983309.6611376,77.4315857887268,0.061857367474946565,-0.16705273819815927,-2.322189118865341,-0.070141782877,-0.0224478501972,-0.0287177634002,0.0767674560905,-0.0752951615288,0.184155547397
1765983309.8608756,77.63132381439209,0.07663534823233713,-0.17538580253853084,-2.2834118954971334,-0.0494367386074,-0.0139371227619,-0.00207019565113,0.129095856404,0.0139292664097,0.202105456369
1765983310.065329,77.83577728271484,0.09072620013897363,-0.17812997366001893,-2.2417792308081426,0.00428297288253,-0.0320517901477,0.0242998528718,0.0663738887072,-0.00826377894568,0.207547375338
1765983310.2657936,78.03624176979065,0.08488289181220353,-0.18389884663432132,-2.2002154088333303,0.0390577410488,0.0760931786004,0.0556156563996,-0.0315528173685,-0.0427242071165,0.198304199951
1765983310.4625754,78.23302364349365,0.07297567387424228,-0.21125834939530277,-2.1657125590147,-0.0386727656098,0.0318110486347,-0.0501630377532,-0.00236442095934,-0.164705094023,0.156004258768
1765983310.6620994,78.4325475692749,0.07188216328589893,-0.22089298378418012,-2.1338277297056716,-0.0781528781028,-0.126475412041,-0.112107999301,0.0527125041247,0.137537378745,0.167597377078
1765983310.8636997,78.63414788246155,0.08285764102698233,-0.19596190110794423,-2.0997792151690087,0.0305435900716,0.0968736376468,0.0767137933015,0.114431646025,0.0508156082795,0.14152484514
1765983311.0616748,78.83212304115295,0.08895470699374496,-0.19652033269902022,-2.0720141629082787,0.0191714913724,0.0282521623972,0.104778521085,0.00326970575975,-0.0414888971283,0.129055508749
1765983311.2614405,79.03188872337341,0.07307416922268317,-0.20125200429727763,-2.0466369008809133,-0.0119322146149,0.00340431219371,0.0173132348298,-0.0747095604181,0.0125732616724,0.123027989046
1765983311.4644847,79.2349328994751,0.06197344384777119,-0.19919506189508449,-2.022445011854743,-0.0713225583406,0.0513269364688,0.0298368859529,0.0437166731119,0.0188541001843,0.108617083506
1765983311.664515,79.43496322631836,0.07811874560426808,-0.1987345014740689,-1.9999257211511963,0.0339854826359,0.030700656012,0.0576107430696,0.124065246737,-0.0178631060554,0.107684285717
1765983311.8660715,79.63651967048645,0.08400176832079399,-0.21021976650444232,-1.9785689002634692,0.114744605604,-0.118432212263,-0.124670751071,-0.0453483198523,-0.0268783104404,0.115535692649
1765983312.063576,79.83402419090271,0.054441899449351,-0.20601824705543562,-1.9523001450612,-0.0197021922888,0.0288219921145,-0.070233113742,-0.113267812574,0.0611212439106,0.133604848163
1765983312.2644186,80.03486680984497,0.04843991665588261,-0.19928123180110535,-1.9253127358387732,-0.00688733336047,0.144379940242,-0.00117851016529,0.105596725202,-0.00720877580183,0.129144930618
1765983312.462773,80.23322129249573,0.0725349706481046,-0.21267493471338636,-1.9018176629118215,0.0809822102217,-0.0267864871916,-0.0780332159758,0.122238364375,-0.0602151864006,0.116127283649
1765983312.6614003,80.43184852600098,0.06836544658288168,-0.2140008893306232,-1.8770979353575972,0.0811633934407,-0.0216426063475,-0.0458934378386,-0.0883530636072,0.0631299241648,0.119931542651
1765983312.8613052,80.63175344467163,0.042989366333250345,-0.19549821147264781,-1.8518923140624877,-0.0225118993641,0.169348877281,0.12326359036,-0.0563423965812,0.0777375287579,0.112311096268
1765983313.062054,80.83250212669373,0.048353996421213935,-0.20117557157399235,-1.833786014443257,0.0456771646766,-0.0168596614298,0.000154726529042,0.0862505550742,-0.0554050952925,0.0764842120574
1765983313.262244,81.03269219398499,0.04929462075704072,-0.20207395567821695,-1.8198463635075097,0.0780741964607,-0.0719420123991,-0.0202920508147,-0.0563215349555,0.0490140504406,0.0607471031712
1765983313.4656453,81.23609352111816,0.027886253138058533,-0.18820289778529606,-1.8081702663402752,0.00584664020225,0.119761634976,0.0385954308747,-0.0816490386367,0.0348966903256,0.0465298978255
1765983313.6651518,81.43560004234314,0.02055933521870811,-0.19058234899549778,-1.8013839992505354,0.0121977479337,-0.0211356390413,-0.0445010733367,0.0157308022738,-0.0214498136921,0.0267098633216
1765983313.8644485,81.6348967552185,0.023398356486895047,-0.1899681907586119,-1.798396864613848,0.0481366944639,-0.012418370336,-0.0985486578704,0.0106658978168,0.0101518229784,0.00662608012716
1765983314.0620997,81.83254790306091,0.017885049189293987,-0.17799836356789855,-1.7992702482933394,0.0330143888621,0.0232531720627,0.0124065804719,-0.048306196624,0.0952493733929,-0.0218671789749
1765983314.2625744,82.03302264213562,0.01408395993701862,-0.1609070612191243,-1.8058031156053584,0.0142095220415,0.0147554356459,0.0517179894685,-0.00410190101116,0.0918131805227,-0.0468325900271
1765983314.4617329,82.23218107223511,0.015229073432671457,-0.1429150611449284,-1.8189448834785178,0.0572898929147,-0.0823396701512,0.0213205743074,-0.0387381610215,0.121955234484,-0.0825834559633
1765983314.6614227,82.43187093734741,-0.0017335261948639095,-0.11298682299926781,-1.840254433256896,0.0530315620033,0.084494408578,0.0832025933503,-0.132417287374,0.11877383657,-0.128535656853
1765983314.8620799,82.63252806663513,-0.023784847740092797,-0.101618637188317,-1.8715752050470453,0.0328635965614,0.121845934898,0.0459167886018,-0.10212622925,0.00706579156381,-0.182525551541
1765983315.0632243,82.83367252349854,-0.029652863127757195,-0.11604369916700163,-1.9138552841970342,0.038516258928,0.0660106096271,0.0206348824739,-0.00730862810611,-0.113430235608,-0.240246719344
1765983315.2651494,83.03559756278992,-0.022012549404753293,-0.14054216796891097,-1.9675653844295344,0.0669982229499,-0.000958282142557,-0.0216796469451,-0.00199338483958,-0.102194737716,-0.292306891306
1765983315.4666824,83.23713064193726,-0.019921206451416897,-0.15309402901586114,-2.029831422296132,0.0455948581128,-0.0515545491275,-0.0574834418059,-0.0641208027244,0.00873770231542,-0.318777284248
1765983315.662226,83.4326741695404,-0.027582469681464557,-0.14005143060379344,-2.094760887568918,0.0354427565961,0.00836334972116,-0.0547959875823,-0.0793721486568,0.115786176102,-0.314143082721
1765983315.863404,83.63385224342346,-0.028021986968679306,-0.12382145280819964,-2.156194953910975,0.049101824048,0.101375278443,-0.0520322394133,-0.00155976104884,0.0439983195828,-0.291160962208
1765983316.0636318,83.83407998085022,-0.018203386405126323,-0.12681138376403162,-2.2143874205741874,0.0725587104587,0.0391990676376,-0.0474994253875,-0.000126268410672,-0.0373344571127,-0.289497992618
1765983316.262341,84.03278923034668,-0.01998147503524215,-0.13589587565072583,-2.273386958205748,0.0510685463576,-0.00643564538626,-0.0361678671599,-0.0894766186118,-0.0290702675267,-0.295565685852
1765983316.4619598,84.23240804672241,-0.03230986357722102,-0.13662544030897464,-2.333073990872713,0.0315874275891,0.0232063032541,-0.0172221731902,-0.0855382417083,0.0334304160641,-0.291670611723
1765983316.6607175,84.43116569519043,-0.031772281624647916,-0.12941578054018257,-2.3911399573841465,0.029337661448,0.0299552952725,0.0227835107087,0.0152226726771,0.0572231038676,-0.282890847547
1765983316.8652399,84.63568806648254,-0.015275834796342966,-0.12267203248172144,-2.4451994643516652,0.0899879058032,0.0138526581082,0.0297968316316,0.060335945642,0.0142064308019,-0.257204196079
1765983317.0649345,84.83538269996643,-0.00525798140942757,-0.12490245486179803,-2.4932058724775423,0.0685647671251,-0.0535192895826,0.0231363702058,-0.0287528929055,-0.012024832031,-0.223356208427
1765983317.2621684,85.03261661529541,-0.010219203449636248,-0.12812502958360522,-2.534599385300644,0.00632745038255,-0.00451989063589,-0.00637031314381,-0.0486414690256,-0.00240315201531,-0.185861906631
1765983317.4622643,85.23271250724792,-0.0072196008497986365,-0.1279007081960365,-2.5686859830408952,-0.00926518615798,0.0023744556907,-0.00249648807057,0.039337227425,0.0022989100979,-0.15619518481
1765983317.6629217,85.43336987495422,0.008374221622483595,-0.1252530849864422,-2.5959514262811263,-0.00663452584759,-0.0335633266863,-0.0160644125701,0.0569965879679,0.0188660229759,-0.123758352025
1765983317.8624105,85.63285875320435,0.015223993660951592,-0.11812456008473506,-2.617418102563819,-0.0343363433005,-0.0720146555599,0.0251476693391,-0.0100847162992,0.0415038689242,-0.0920546265676
1765983318.060792,85.83124017715454,0.015085935806160803,-0.116297248747534,-2.63304393394375,-0.0412138941558,-0.000196797415294,0.0653335976838,0.0118445799001,-0.0472198874487,-0.0642848225667
1765983318.2622077,86.03265595436096,0.02223329633079644,-0.12175332512942817,-2.6430084174783905,-0.0778580660792,0.00597632339629,0.0854856896638,0.0444066006005,-0.00743825182157,-0.0342783542707
1765983318.4644303,86.23487854003906,0.033111855814146975,-0.12278074771084553,-2.6477792042551584,-0.121519548711,-0.0822056193051,0.00863765957348,0.0360351245165,0.0276085342483,-0.0125137182309
1765983318.6637127,86.43416094779968,0.03433364754324807,-0.11341178860783879,-2.6466638723906333,-0.0766455362411,-0.0236349512037,0.0469419884919,-0.0155668516397,0.0303577966259,0.0154699192957
1765983318.8656855,86.63613367080688,0.026772163388510517,-0.11346549291569592,-2.6402190225526416,0.00969907279595,0.047505731121,0.0425960946321,-0.0295426507234,-0.0757079460456,0.0449712438152
1765983319.0620832,86.83253145217896,0.026841711424259018,-0.1384722343340253,-2.6292167051411974,-0.0759075040789,-0.00312647001413,-0.0913426947356,0.0454839508295,-0.120685596092,0.072802142577
1765983319.2624445,87.03289270401001,0.040608928921207446,-0.15390093353664153,-2.611399624816349,-0.131347870347,-0.0770977918204,-0.112269170261,0.104577485776,-0.00142563537533,0.109177359717
1765983319.4625554,87.23300361633301,0.05031096209160982,-0.14017490140983224,-2.5845467052289712,-0.0193782317312,-0.0660446096357,-0.0515620779754,0.0269156157285,0.112704601066,0.143138596194
1765983319.6609147,87.43136286735535,0.044883618721164066,-0.13283087684166728,-2.552580516348641,-0.0464825834008,-0.00405069032279,0.0230142998933,-0.00576784990131,-0.00968982193458,0.167001315729
1765983319.8625283,87.63297653198242,0.04297802293148229,-0.14162735617884784,-2.518659833544302,-0.0288148577185,0.0319753926102,0.0467111993074,0.0426065403283,-0.0719871037437,0.169747599737
1765983320.0614538,87.83190202713013,0.04809132967513726,-0.15455826827270033,-2.483808642255089,-0.0828287730785,-0.0706247497496,-0.014228589511,0.046559818393,-0.0131662619098,0.176284754054
1765983320.2615926,88.03204083442688,0.044698345933078615,-0.15121606768367812,-2.4464969564347516,0.0342059825687,0.00505876204403,0.0543463158845,-0.0153031010866,0.0167128033207,0.182719075458
1765983320.464171,88.234619140625,0.030549765848625444,-0.15104753952094657,-2.409974098929296,0.023712899643,0.0701350908581,0.0439350533723,-0.0395249497831,-0.00524331357169,0.176247530954
1765983320.6656663,88.43611454963684,0.023614214015624378,-0.15854117548572513,-2.376147425711437,0.0053349361895,0.0491903427842,0.000855677151601,0.0232022444964,-0.0377487093939,0.165138685481
1765983320.8632636,88.63371181488037,0.025982477868653178,-0.1607350875917324,-2.3454174762091213,0.00935431580528,-0.00348928907482,-0.019596822238,0.0348728395313,0.0317331775294,0.144402229564
1765983321.0624337,88.83288192749023,0.029122584062235786,-0.15492651687243103,-2.317322191973221,-0.00354059076399,-0.0192258466181,0.0272352624177,0.0320892970324,0.0379499382542,0.131408417003
1765983321.262172,89.0326201915741,0.028660431986349964,-0.14584820019051442,-2.291132665813382,-0.000614654631323,0.0128007525432,0.0429680276155,0.0161346246734,0.0494983419047,0.123835631983
1765983321.461849,89.23229718208313,0.030166349714248895,-0.1455279550694324,-2.2659692556215503,0.00918517458721,0.0822530168894,0.0490906167268,0.0424083548844,-0.047139417453,0.121615358965
1765983321.6610248,89.43147301673889,0.03400432686851376,-0.15409922252455474,-2.2412665722983025,-0.0680226067872,-0.135551828533,-0.0542590689421,0.0187825600863,0.0380736216174,0.126768180506
1765983321.8633788,89.63382697105408,0.029113285884961128,-0.13612054657818765,-2.2141412113314094,0.090022923532,0.266547408313,0.179111712003,0.0100653811371,-0.00215281250725,0.134939977305
1765983322.0635638,89.83401203155518,0.03756234753556245,-0.17153269113913375,-2.188985124832575,-0.013944919114,-0.0209839042422,-0.111248738742,0.0770446176887,-0.191667269988,0.136172318237
1765983322.2640023,90.03445053100586,0.04753111709508228,-0.1947738982351735,-2.159439349908964,-0.0729120950075,-0.0733120326099,-0.0642497610808,0.088306915319,-0.006320667526,0.16652894892
1765983322.4625516,90.23299980163574,0.05945903694932969,-0.1842769322853285,-2.1233673655760583,-0.0100993019389,-0.00372887366978,0.0536911416291,0.102850448644,0.0828605479763,0.17967327811
1765983322.6621969,90.43264508247375,0.07078621424068247,-0.17565116989640042,-2.085917195379037,0.00257653381213,0.0615604933205,0.124704592252,0.0779699797988,0.00931437771929,0.18191141762
1765983322.8617172,90.63216543197632,0.07556147845703312,-0.18982644400959242,-2.0503576032398634,-0.00432279695288,0.051576950014,0.0951893258332,0.0260558187276,-0.118974920435,0.176544004457
1765983323.0605297,90.83097791671753,0.06989478764480571,-0.22143287311616644,-2.018085683466392,-0.0247584356786,-0.0682305503782,-0.0613057684661,-0.0146176495343,-0.124944340511,0.163898893969
1765983323.262295,91.03274321556091,0.05756514658487665,-0.23351858110381185,-1.9841784496255577,-0.0338211822183,-0.0168499272463,-0.113605267978,-0.00857373482882,0.0120010542886,0.167145842092
1765983323.4659903,91.23643851280212,0.055540212050034905,-0.22994270477389203,-1.9498546973902349,-0.0225263814302,0.0712886717025,-0.0723865103484,0.0724103491068,0.0222619994746,0.158814662473
1765983323.6618392,91.4322874546051,0.0700751169401177,-0.23196634101770236,-1.918608094636444,-0.0318741592439,0.00791254302891,-0.0486772131682,0.127270464158,-0.0108252885549,0.143205651419
1765983323.859951,91.63039922714233,0.08231780995164487,-0.2345375398263898,-1.889843424860553,0.0718429555325,-0.0595896724757,-0.0843617987395,0.0272479097605,0.035522542821,0.138324045913
1765983324.0635808,91.83402895927429,0.06775597384503865,-0.22373669055140993,-1.8611698351939423,0.038676319751,0.0184474311623,-0.0012662482024,-0.0767748837113,0.0883933640288,0.130717003124
1765983324.2606776,92.03112578392029,0.053791992436019995,-0.2125567236505005,-1.8373233581611548,-0.0192593484046,0.0390189964178,0.0811150002717,0.00324437332005,0.0481482929753,0.0987152767942
1765983324.4643862,92.23483443260193,0.05680280007808466,-0.2062175180840008,-1.8199418378325891,0.0307815914182,0.0402138367149,0.113408319974,0.0359114448786,0.0339921935664,0.0713686434195
1765983324.665239,92.43568730354309,0.05174259426985235,-0.2020092075742144,-1.8070276370745768,0.0883002151875,0.0222670411545,0.0302565026521,-0.0718097944498,0.0335868819819,0.0560174708829
1765983324.863428,92.63387632369995,0.028271148575196837,-0.19615567936676112,-1.7974137586974452,0.0244699736266,0.0280345588777,-0.0182683539153,-0.111348550463,0.0482406838999,0.0368098703788
1765983325.06208,92.83252811431885,0.01915063951535388,-0.18918145968308886,-1.7913565319561144,-0.0337350348802,0.0909848850075,0.020891420865,0.0436868745148,0.0204574669914,0.0197420840726
1765983325.2614005,93.03184866905212,0.03650158134505947,-0.1905505907994986,-1.7889849870053989,0.0689414610295,-0.0140677426156,-0.0526425909758,0.0825744386077,-0.00399757556456,0.0094960437731
1765983325.461916,93.23236417770386,0.039248590397584174,-0.1898437212671643,-1.788093760146604,0.0636317153601,-0.00290223175255,-0.0341069769622,-0.0527720783591,0.0170987452583,-0.000963082665847
1765983325.6636693,93.43411755561829,0.024572107286644645,-0.1850859007559537,-1.788648629759722,-0.00311394025103,-0.000200533881463,-0.00832916018971,-0.0719021816492,0.0309270228462,-0.00727894030352
1765983325.861646,93.63209414482117,0.01975616536523764,-0.17697767379061208,-1.7908325550116415,-0.0172010556655,0.0484303612116,0.0309746194123,0.0212814857498,0.0444945319758,-0.0114765974118
1765983326.0637376,93.83418583869934,0.03178050829570274,-0.17254172958665115,-1.7948792282880168,0.0416557137994,0.0247517399344,0.0205471444368,0.0606473724604,0.00206943227372,-0.0245657774045
1765983326.2628047,94.03325295448303,0.034440067876526564,-0.1756841930939174,-1.8004365796927397,0.0643659253745,0.0145272383321,0.0129597115754,-0.0391762588858,-0.0204305779918,-0.028454986064
1765983326.465471,94.23591923713684,0.021821806733460174,-0.1793432932079022,-1.806748670950391,0.0135694929539,-0.0142268348631,-0.0273625921965,-0.0731881593108,0.00250156589014,-0.0328508248909
1765983326.6616387,94.43208694458008,0.017340172672047578,-0.17573485973365616,-1.813104837524083,0.00349707632794,0.0390227682743,-0.0232369971038,0.0246029555112,0.0186752881126,-0.0292238803937
1765983326.862432,94.63288021087646,0.029025339151150464,-0.17248741774517035,-1.8193257155143991,0.0221831557481,0.0501426666829,0.012551538968,0.0712778683066,-0.0038396232559,-0.0305217733963
1765983327.0621583,94.83260655403137,0.039697407942668184,-0.17746987589432917,-1.8253194258637315,0.0434174967138,-0.00900979676811,-0.00984645602711,0.00991338882727,-0.029655881299,-0.0225272948279
1765983327.2628174,95.03326559066772,0.030922837266642716,-0.1776714272545777,-1.8295517214680854,0.00786714452788,0.0331629332009,0.0461275506257,-0.0746842358947,0.0166219062374,-0.0183862667887
1765983327.4628584,95.23330664634705,0.024158183393624477,-0.17975283744928594,-1.8329367323716306,-0.0230767465057,0.0375998247269,0.0205204415559,0.0166159312487,-0.0120143984242,-0.0143614612876
1765983327.66243,95.43287825584412,0.03542538546499084,-0.1811805248201638,-1.8355841808112785,0.0313520264952,0.0089672425616,0.0067150521516,0.0674616771996,0.0146668738888,-0.00882270037037
1765983327.8631873,95.63363552093506,0.04210613311891477,-0.17974679540256283,-1.8367454522046074,0.0564920996456,0.0214820293564,0.0062267709016,-0.0132705789745,0.00327344627281,-0.0045840651852
1765983328.0632534,95.83370161056519,0.03102519211806963,-0.18072708835506418,-1.8373991250941675,-0.00181586284653,0.0165679989237,-0.0407064032317,-0.0767569874167,-0.00347901515501,-0.00535147492847
1765983328.262859,96.03330731391907,0.020779738846641988,-0.18055481512204968,-1.837915245713425,-0.0301902348967,0.0508135672513,-0.0171601843596,-0.00591239116489,-0.00714023046034,-0.00687213877755
1765983328.468618,96.2390661239624,0.02748396184945605,-0.18085603528609445,-1.8400634846067372,0.0187075306801,0.0264551522064,-0.0358970236541,0.0518124814391,0.0144031261296,-0.0161928149297
1765983328.6611836,96.43163180351257,0.03264393424943085,-0.17483293029623037,-1.8435177376986245,0.0259612073331,0.0100308362249,-0.00226760623463,-0.00262817337512,0.0360664352046,-0.0217747908442
1765983328.8625247,96.63297295570374,0.025674562351180374,-0.16905798198569125,-1.8489528500093126,0.0214241278498,0.0364722948376,0.00634788753978,-0.0635351870894,0.03034289919,-0.0293311743422
1765983329.062731,96.83317923545837,0.01937566622449257,-0.16849081189728843,-1.857064572373585,-0.0190682410123,0.0314386127371,0.0419800210237,-0.00194123170673,-0.0178809874489,-0.0482973778977
1765983329.2628493,97.03329753875732,0.024091042605830056,-0.1698169496068502,-1.867743315712585,0.0267935526697,0.000929557144962,-0.0336883139373,0.0189867087886,0.0133421625213,-0.0544351661934
1765983329.46172,97.23216819763184,0.025157590768730954,-0.16410912960053786,-1.8792376521354213,0.0272749048798,0.0717576149705,0.0368473458528,-0.0199820712894,0.0167426075057,-0.0559818955495
1765983329.661226,97.43167424201965,0.02355479639499119,-0.16684046761452315,-1.891800315629543,-0.0060722165601,0.00252053549918,-0.00804019687184,-0.0117968597203,-0.0209610574676,-0.0636098111405
1765983329.8628855,97.63333368301392,0.024621785643947628,-0.16674957059756737,-1.9042089152546038,0.0184664112656,0.0167712135095,-0.0345094275237,0.000425074553501,0.0121590065972,-0.0581246862545
1765983330.0625122,97.83296036720276,0.02531628396078065,-0.16137652658503482,-1.9155566446594314,-0.00135392684952,0.0520841482881,0.013304941678,-0.00302156403064,0.0133645133318,-0.0547883125379
1765983330.261766,98.03221416473389,0.02933700390009539,-0.1612487947212519,-1.9263292644268564,-0.00295889832542,0.0442391060147,0.0611622262239,0.022187478213,-0.00138540247294,-0.0539329933359
1765983330.46447,98.2349181175232,0.0339426434803594,-0.1613333667306187,-1.9365696514504291,0.0150212851493,-0.00696191155878,0.00412010433666,-0.00252833559512,0.0124078587831,-0.0502449484899
1765983330.6679037,98.43835186958313,0.028269941830327893,-0.15911846558627027,-1.9458017656852977,0.021767621967,0.0561610352102,0.0175173211335,-0.0526558455765,-0.014283848068,-0.0459966199829
1765983330.8660152,98.63646340370178,0.017451318035666352,-0.16364618897929803,-1.9549422671786678,0.0157530960767,-0.0136600989994,-0.078796155429,-0.058394279027,-0.0135074994324,-0.0457328768804
1765983331.0628734,98.8333215713501,0.013850585882338217,-0.15902851732045284,-1.9637476098488513,-0.0290971415909,0.0861196111742,0.0836908746003,0.0338208119631,0.0261839832382,-0.0444901237621
1765983331.2623537,99.03280186653137,0.030620637142540576,-0.15865808825757963,-1.9737436518424092,0.0352196005313,-0.00548949056832,-0.00946689364918,0.0636082369149,0.012181358339,-0.0518736491336
1765983331.4621124,99.23256063461304,0.0311587454855479,-0.15482360234105627,-1.984210540716693,0.0518781897752,-0.0169757042226,-0.0193593573333,-0.0825207491159,0.030354820119,-0.0517395461335
1765983331.6612148,99.43166303634644,0.01334019001912723,-0.15231785071615755,-1.9952164533956092,-0.0196011670725,0.0784401338402,0.0381996560334,-0.066874537313,-0.0199805610611,-0.0589964041843
1765983331.8622339,99.63268208503723,0.016185777643876895,-0.15832717384738046,-2.0070799039455305,-0.0103710851492,0.0149265428859,-0.00740600345143,0.0645723383188,-0.0291343462451,-0.0611377010479
1765983332.062073,99.83252120018005,0.03198601070509978,-0.1569854233559281,-2.0188713159879654,0.0398729314236,-0.011495474368,0.0104267525911,0.044791046834,0.0299852657334,-0.0578937070801
1765983332.2647285,100.0351767539978,0.03205209663143117,-0.15071223089494876,-2.0300123840922026,0.0429751184909,0.0237394388619,0.0340578484773,-0.0623192448854,0.0232708043621,-0.0535813222065
1765983332.461783,100.23223114013672,0.019599777472006544,-0.14860550402512795,-2.0405158914314754,0.0031747223018,0.0532049726549,0.0214588570832,-0.0557344292045,-0.00910271525222,-0.0518498147263
1765983332.66452,100.43496823310852,0.018345378664308784,-0.15407302367733108,-2.0505425597775693,-0.0183474904718,0.0294582949805,-0.048257596469,0.017664973928,-0.0358368866875,-0.0519600721433
1765983332.8617675,100.63221573829651,0.026699908499185306,-0.157192018077491,-2.060173748701786,0.00812095321252,0.00351176446708,-0.0327918600798,0.0368576723397,-0.00107098773892,-0.0440073224141
1765983333.0607326,100.83118081092834,0.03069963107778045,-0.15519083561062139,-2.0689818876911144,0.0273378883628,0.00499785354765,0.0100777077912,-0.0148590427577,0.0137683338688,-0.045382695867
1765983333.2627795,101.03322768211365,0.026226970620884662,-0.15188300644441804,-2.0771741706783615,-0.0049391229497,0.0385913796577,0.0309956002473,-0.0280957516968,0.00869448941362,-0.037216868846
1765983333.4654157,101.23586392402649,0.02583936000779124,-0.15172651244086227,-2.084685083900712,-0.0163525975169,0.0513748995814,0.0478594231843,0.0146236459971,-0.0189523828013,-0.0349474182709
1765983333.6626563,101.43310451507568,0.03319071659133234,-0.15958826384731706,-2.091797321907878,-0.0112970759021,-0.0290092747804,-0.00917506930836,0.0340726434499,-0.046428632064,-0.0323188534363
1765983333.8602774,101.63072562217712,0.03665894919834793,-0.16398286247535449,-2.097141354109285,-0.0158539441274,0.00246055832537,-0.0089566778899,-0.0045236020103,-0.0147800576671,-0.0209343644216
1765983334.0613194,101.83176755905151,0.03379464870575126,-0.16715670134921323,-2.1004624491466686,-0.023694096026,9.44625440462e-05,-0.0102040838958,-0.0171791591436,-0.0222216957046,-0.0100371454733
1765983334.262663,102.03311109542847,0.032507128912590236,-0.16701693532625453,-2.101453145072178,-0.0277591812284,0.0122108528245,-0.00668121097096,0.015376155103,0.0142213291691,0.000696906225487
1765983334.4666085,102.23705673217773,0.04431802572346929,-0.16976575033489344,-2.100371635353497,-0.0398546623857,0.0282085765007,0.0639450478791,0.094236087358,-0.0424381010963,0.00999821290533
1765983334.6644623,102.43491053581238,0.05626765034060084,-0.1807546187828329,-2.097754014318058,0.0206898954837,-0.038165665805,-0.0298669409514,0.00526646159255,-0.0494297296538,0.0244106141494
1765983334.8627684,102.63321661949158,0.04339835297528086,-0.18544432894916474,-2.0919621715793535,-0.0205018724175,-0.0291587520537,-0.0551860403777,-0.0983115170836,0.0140127129124,0.0378618960844
1765983335.062546,102.83299422264099,0.03155518406153601,-0.17984058860720406,-2.0834002418328033,-0.0821712816925,0.112729262919,0.0475532937287,0.0296961705446,0.0147428707422,0.0421653514371
1765983335.2620854,103.03253364562988,0.04828301901697412,-0.18280157433093822,-2.0749950391164043,0.0382720102696,0.0181685233343,-0.0503146719695,0.0934418480158,-0.0198971201463,0.043370859103
1765983335.460222,103.23067021369934,0.05063961697607161,-0.1852574083301548,-2.065567715173633,0.0527291839151,0.0142731735337,0.0158607888459,-0.0452544462621,0.00151957939657,0.0465328780578
1765983335.6634214,103.43386960029602,0.03375187168074186,-0.18612887786261278,-2.056236797662322,-0.0126219288306,0.0414901900891,-0.0120256018401,-0.0695254315376,0.0123616651834,0.041625918226
1765983335.861886,103.63233423233032,0.026976350862119334,-0.17907429729304739,-2.047920278210223,-0.0414188410015,0.0557599853578,0.0514576363801,0.0309880993575,0.0596057958172,0.0372628582285
1765983336.0640996,103.83454775810242,0.03888391209818985,-0.17124683408562738,-2.0413286881961676,0.0256980379252,0.0544427227083,0.0417845177888,0.0670906345606,0.0266652907447,0.0271583882735
1765983336.2613878,104.03183603286743,0.0391652501002215,-0.1693225503952338,-2.0368387317563483,0.0758155082492,0.0502470437291,0.0254089761018,-0.0623341460466,0.000492144303147,0.0191236840204
1765983336.4621046,104.23255276679993,0.021954509137746377,-0.17311259481106644,-2.0344167199029757,-0.00371005654798,0.0329178090993,-0.0298974585296,-0.0785957832575,-0.0200759303554,0.0057483998702
1765983336.6622932,104.43274140357971,0.01396002723897826,-0.1733600191210916,-2.034222575459509,-0.0406960191996,0.00375774911078,-0.0417497229338,0.00899547744325,0.0357266850041,-0.00229822717448
1765983336.8624434,104.63289165496826,0.02552526096316241,-0.16295634703318346,-2.035857756368818,0.0213946980564,0.00707034802469,-0.0334346365691,0.0759657661677,0.0611883028613,-0.0130814515411
1765983337.0616686,104.8321168422699,0.0316560949803094,-0.15244573238275178,-2.0389495532363453,0.0377612021892,0.0529496487084,0.0361072945832,-0.0183772106409,0.0350814647244,-0.021622799
1765983337.2614748,105.0319230556488,0.025007373919088274,-0.15788269226144624,-2.0440208777421285,0.0141110812454,0.00807913335445,0.0268137383699,-0.0426541899085,-0.0477310047283,-0.0311044106617
1765983337.4624527,105.23290085792542,0.01988610682048749,-0.1637498691694862,-2.0507984895583258,-0.021122412649,-0.0101300623414,0.00271629574291,-0.0145267524511,-0.00195909671324,-0.0350025507047
1765983337.6620603,105.43250846862793,0.022297932082690503,-0.1570322949911135,-2.0585308446253165,0.0104100500373,-0.00770249927012,-0.0245378088713,0.0104870836496,0.0629362090693,-0.0389111252858
1765983337.863373,105.63382124900818,0.022358645913760505,-0.14602340290072802,-2.0670027595270217,0.0389065650432,0.0800242204073,0.0249102044343,-0.0174414158553,0.0156279997171,-0.04857452832
1765983338.065208,105.83565616607666,0.01920759163138415,-0.14826763210658098,-2.0764429998010803,0.031586976829,0.0353896556276,-0.00418735263356,-0.0257175263703,-0.0257979743912,-0.0487235436573
1765983338.2622867,106.03273487091064,0.01821813782085184,-0.15736537321969835,-2.086556886672874,-0.00604194857643,0.0304920397553,-0.0139005255462,0.0025469999075,-0.0477250368132,-0.0500944504871
1765983338.462199,106.23264718055725,0.02019214564162963,-0.15929083868782565,-2.097470787136128,-0.0139869916113,-0.0129554603395,-0.0385739874602,0.00434109971524,0.036058984624,-0.0550371693804
1765983338.6632679,106.43371605873108,0.0213827700635984,-0.14517858162392763,-2.1081230320222812,-0.0044629377173,0.0263737080473,0.0287849831819,-0.00546535539775,0.0804063341783,-0.0565928431584
1765983338.8641331,106.63458132743835,0.022799305447411544,-0.1379039324021592,-2.1189479829051265,0.038071403387,0.0894034098688,0.095128290677,0.00197032450364,-0.0277306587233,-0.0517931828632
1765983339.0616217,106.83206987380981,0.024372172548401547,-0.1522081451240031,-2.130381865571218,0.00137214745864,-0.0270616222319,-0.034190900302,-0.0139470972806,-0.0752429925634,-0.0551444428398
1765983339.2628415,107.03328967094421,0.019669537728404407,-0.15590680982493238,-2.1411275874116336,-0.0361796635063,0.00952447614106,-0.00503803012379,-0.0339399833918,0.0287499594705,-0.05087824039
1765983339.462064,107.23251223564148,0.02076068476128031,-0.14778073968028724,-2.1507888700561684,-0.0464612561138,0.0280485985655,0.00782322170726,0.0315692483693,0.0501376017199,-0.0474733325078
1765983339.6621451,107.43259334564209,0.028217583667178015,-0.1424210447627187,-2.1596055311609845,0.0235160646169,0.0259842289466,-0.00538612124928,0.0307318031103,-0.00112463168639,-0.0439208994045
1765983339.8634586,107.63390684127808,0.028203851742807293,-0.14576419410287925,-2.1674681148052803,-0.00896027114705,0.0248745348159,0.0179169106721,-0.0278498825371,-0.0307526104881,-0.0376579376294
1765983340.0644329,107.834881067276,0.023979556024696615,-0.15503747082134647,-2.1742792824512125,-0.0397994573088,-0.0127097327408,-0.0219400000335,-0.0161152162343,-0.0420521610214,-0.0329670539482
1765983340.2625272,108.03297543525696,0.023817814761555537,-0.1544828009453102,-2.1796582020628996,-0.0328574961843,0.00288875623079,-0.0100047659636,0.00808427134893,0.0347298010455,-0.0244555088117
1765983340.4624424,108.23289060592651,0.027819474373724794,-0.1478455044290466,-2.1837027448104034,-0.000101623949564,0.00543771719965,0.00439666988842,0.0202309538856,0.0164728946255,-0.022342526017
1765983340.6628385,108.43328666687012,0.027758773026222403,-0.1473495572550466,-2.187524114658558,0.00352776340678,0.0492119718197,0.0436737466096,-0.0204097346157,-0.0267471820845,-0.0199985733612
1765983340.8614242,108.6318724155426,0.02381396358094793,-0.15399640786172086,-2.1917200581140324,0.00768777180001,0.0164174971956,-0.0175969671965,-0.026450663501,-0.0240962617828,-0.0168991309016
1765983341.061904,108.83235216140747,0.020306264174934127,-0.15578665132549938,-2.195860874134942,-0.0241549628647,0.0495819173607,0.0110943246125,-0.00372936918734,-0.00905055932539,-0.0198406201213
1765983341.2615352,109.03198337554932,0.0251124377046865,-0.15701265417807417,-2.2001023576450565,-0.0244198533566,-0.0073340680596,-0.0184142660857,0.0340100585729,0.00939484305841,-0.0187170744299
1765983341.4626374,109.23308563232422,0.032596313600188866,-0.15276902349433058,-2.2034906974999644,-0.00354234863535,0.0226084407273,0.0458891320466,0.0332605283022,0.0229221190528,-0.0130069471321
1765983341.6638675,109.43431568145752,0.037201476724289105,-0.15673100824804148,-2.2058919366968346,-0.0105502948956,-0.0161378380057,-0.0347135138274,-0.00628938868045,-0.0417571217551,-0.00359462819834
1765983341.8632042,109.63365244865417,0.0334912772068884,-0.16143579856404588,-2.2059261583168417,-0.0444752330752,0.00602209790083,0.0119593072175,-0.0232752260506,-0.015665186642,0.00665141023855
1765983342.0620775,109.83252573013306,0.036042714528049614,-0.16338443353365686,-2.203514133317557,-0.0484535860689,-0.00240017810432,0.00291370632641,0.0446807782412,0.00111948318577,0.0173280922339
1765983342.2620053,110.0324535369873,0.04111307363793785,-0.16274152980175494,-2.1989646552273747,0.0261829068093,-0.0116818320152,-0.0118119787932,-0.00432988598346,0.0123199419321,0.0297243719564
1765983342.4626043,110.23305249214172,0.03259176125920051,-0.16230738460980157,-2.192942848528542,-0.00453918975309,0.027303633638,-0.0536449026824,-0.0643756051302,-0.00956613857138,0.0316272465156
1765983342.6601992,110.43064737319946,0.02279559574723685,-0.1656561432330081,-2.1871376899843873,-0.0360361243458,0.0932177346054,0.0101988244294,-0.000460055352736,-0.0222813022121,0.0255341617034
1765983342.8621905,110.63263869285583,0.03169063493129097,-0.1692788579085997,-2.182708719933531,0.00600249703511,0.000172485024057,-0.0312774252654,0.0615831691086,0.0107508487271,0.0175590620951
1765983343.062046,110.83249425888062,0.03871358214053327,-0.1610473432295442,-2.1789479370001756,0.0310752597777,0.0529440160695,0.0654232430696,0.0066925027188,0.0514787136779,0.0146443986909
1765983343.2651997,111.03564786911011,0.03331388987234311,-0.15573333816942736,-2.176190899481671,4.29405970808e-05,0.0631511475745,0.0742599892854,-0.0389780697167,-0.00534017018812,0.0116731034235
1765983343.4625075,111.23295569419861,0.029640577216634604,-0.16426552373555278,-2.1743535846456257,-0.0421750525804,0.0394504781667,0.00120281460277,0.0124644677401,-0.0652741306259,0.00839782726179
1765983343.662134,111.43258213996887,0.03431227567550019,-0.17306823653415981,-2.1716532724583395,-0.0381879209401,-0.0298093032238,-0.0614783835173,0.0319566822857,-0.0102620237305,0.017471145244
1765983343.8622007,111.63264894485474,0.03619835964900793,-0.16535359148841827,-2.16625477861264,-0.031423119721,-0.00366733559934,-0.0319297384978,0.00429788634778,0.0756260416673,0.0319327240453
1765983344.0618613,111.83230948448181,0.038452937732409376,-0.15662223476226855,-2.1589024566332036,-0.00971871696875,0.0542594384256,0.0105726647615,0.0337790887117,-0.00896860387015,0.0354121414588
1765983344.2623007,112.03274893760681,0.04370251926128153,-0.16331187903870903,-2.1508493238129134,-0.0334869081946,0.0506843704584,0.0287163186311,0.0334378539831,-0.0586386472716,0.0480721605585
1765983344.463936,112.23438429832458,0.04566166955600912,-0.1750888767217438,-2.141788983468355,-0.0217998799728,-0.0295578722057,-0.0297639441253,-0.00379344418048,-0.0363092572226,0.0509063763187
1765983344.664233,112.43468117713928,0.0380173569301809,-0.17316444322853894,-2.1301557631946704,-0.0468721295567,-0.00954468139974,-0.0157802176238,-0.0267606002033,0.0536825842426,0.0615189758704
1765983344.8614683,112.63191652297974,0.03722519134155842,-0.16180279880701562,-2.116679502288597,-0.021671892968,0.0654137957695,0.0685732293367,0.0444453436196,0.0423323697613,0.0638808173702
1765983345.062791,112.83323931694031,0.04619564167694842,-0.1636552270822475,-2.103194319792872,0.0241085720389,0.0463999848667,0.00678276302807,0.0409480373621,-0.0397439711525,0.0673572582767
1765983345.263254,113.03370213508606,0.0435162477877873,-0.17695676797605495,-2.0897352362758292,0.00594915553465,-0.0128981616494,-0.00830627200611,-0.0311177034616,-0.0608157143726,0.0680129019187
1765983345.4621713,113.23261952400208,0.0316818360967207,-0.18181202689364884,-2.075619284075919,-0.0488942879112,-0.0136836391088,-0.0546586584807,-0.0455226671636,0.037465657966,0.0740121243165
1765983345.6608005,113.43124866485596,0.031385802855017776,-0.1700568338420391,-2.0601342007595984,-0.0440999324293,0.040430765957,0.0313980508088,0.0708010274232,0.0599440596269,0.0724623961018
1765983345.862251,113.63269925117493,0.04453166949954249,-0.16580752729622228,-2.044663498513165,0.0416158978967,0.0156310651306,0.0127842355012,0.0603627602816,-0.0147591904535,0.0744978798197
1765983346.063283,113.833731174469,0.042790731966633265,-0.17271724854724418,-2.0290889329842177,0.0129188467888,0.0157641511265,0.025810472989,-0.0356700193822,-0.0417601057126,0.0779221964643
1765983346.2628675,114.03331565856934,0.02933177328526691,-0.17882194613500557,-2.0129859962949994,-0.00851756696121,-0.000593179478921,-0.0352170538665,-0.0542905066848,-0.00148076990458,0.0820662019418
1765983346.4623616,114.2328097820282,0.022782408938651754,-0.17749647421571632,-1.9959918327469857,-0.0289703178079,0.0227028302703,-0.0280368399382,0.0228714387179,0.0186842288093,0.0813717780278
1765983346.6628418,114.43329000473022,0.02931538028040071,-0.16920284130423474,-1.9788254958344984,0.0234052372305,0.00961295178565,-0.0555961203338,0.049081094867,0.0687253139184,0.0833536473678
1765983346.8621697,114.63261795043945,0.033323104825833706,-0.16023186665900513,-1.96171854741432,0.0204396975367,0.119894516081,0.120641939664,0.0225436141029,-0.000275265498336,0.0807966155575
1765983347.0670652,114.83751344680786,0.030737961872126178,-0.1686603553901856,-1.947052918765417,0.0356408377318,0.0174569696042,-0.0172851156951,-0.03042330935,-0.040378756894,0.0731195373104
1765983347.2611136,115.03156185150146,0.019242976303773973,-0.17191212501544278,-1.9339375161870493,-0.0367920788796,0.0440695810917,0.0543825555085,-0.0285591740847,0.0155669068189,0.0624830809997
1765983347.4621024,115.23255062103271,0.020239822466925853,-0.166508837479781,-1.9228005759825015,-0.020210857396,0.00573827734622,-0.0115897726775,0.0477101880372,0.0540253146754,0.0519837228225
1765983347.6614265,115.43187475204468,0.030056084442146608,-0.16171215146141205,-1.912655929600117,0.0275871102838,0.0557918812934,0.0169060158967,0.0536870363414,-0.0181805007889,0.0481079345212
1765983347.8613503,115.63179850578308,0.029668409330620534,-0.16849587190335957,-1.903018881721502,0.0394330901234,-0.0123179961142,-0.0652339529754,-0.0405575928032,-0.0295098536445,0.0508050335215
1765983348.061548,115.83199620246887,0.017776739676117224,-0.17092918554660816,-1.892839481086892,-0.0391689519258,0.0299555513862,-0.0147340368987,-0.0283952650368,-0.00399757556456,0.0491629367338
1765983348.2645476,116.03499579429626,0.022457794568906314,-0.17226464431998523,-1.8836064347456418,-0.0244394111307,0.03292640055,0.00743316891185,0.0815537016153,-0.0011767852849,0.0388274913297
1765983348.464563,116.23501110076904,0.03402914212032734,-0.16596836558130626,-1.8753383848253817,0.0450250749616,0.0329848410416,0.0441324639558,0.0235121905118,0.0507604777084,0.0376696673797
1765983348.661341,116.43178915977478,0.026997647828461563,-0.1637085235935627,-1.8685642351186018,0.0422974658339,0.0264402976114,0.00480007412426,-0.0840734575629,-0.0109623783066,0.0272254434989
1765983348.8620229,116.63247108459473,0.008453250927831698,-0.16648175646044627,-1.8635616201689424,-0.0394615287753,0.0374766796682,0.00400375607006,-0.0669624467134,0.00150616835149,0.0240097729133
1765983349.0613294,116.83177757263184,0.010392846754195918,-0.16676222061274526,-1.8602130945723312,-0.00381643686906,0.0388293567899,-0.0170352530242,0.0720452781081,-0.00207532646904,0.0141869311796
1765983349.2618375,117.03228569030762,0.024677709946244693,-0.16651153393038473,-1.858233433776021,0.0427144860057,0.01865711844,-0.0292346548796,0.0478264170945,0.00550713010294,0.00850213539015
1765983349.4632833,117.233731508255,0.022076789843673048,-0.16385741094325496,-1.8566631008392556,0.0300998185901,0.0296500077325,0.00170635464184,-0.0560592670679,0.021363457592,0.00657541524778
1765983349.6608076,117.43125581741333,0.012260172086775415,-0.16124656432383896,-1.8557303286674554,-0.0255709457071,0.0663540813926,0.0057270455598,-0.015806760335,-0.000977110423397,0.00167740263204
1765983349.8640366,117.63448476791382,0.01742783540469512,-0.16096347029996352,-1.8557637513391358,-0.00449523132757,0.0498729090992,0.0159237313508,0.060563929683,0.00301863629998,-0.00410275779505
1765983350.0647879,117.83523607254028,0.029657821184692866,-0.16101984609128914,-1.8563890615630865,0.0224029944418,0.0248422644887,0.0158426690339,0.0308957158834,-0.00769753388899,0.00263107787977
1765983350.2667847,118.03723287582397,0.026145457085582222,-0.15881097034890698,-1.8578476748921229,0.00942985724195,0.0274089895043,0.00104641201488,-0.0622447390795,0.0336554273234,-0.0125375605545
1765983350.4636984,118.23414659500122,0.013824329818763017,-0.15429647953754555,-1.8619453477033734,-0.0185980860935,0.0308541379723,0.0221579003572,-0.043366457963,0.0119533733667,-0.0279617520406
1765983350.6621788,118.43262696266174,0.012253585964563973,-0.15298623757074017,-1.8702971540399163,-0.0132771375449,0.0662860501412,0.00456356289379,0.00585803769195,0.0105526642145,-0.0518095704152
1765983350.8618138,118.63226199150085,0.017822412888812082,-0.15667528160223157,-1.883326669673129,0.0192463939218,0.0346520015824,-0.0210597586394,0.0134300634511,-0.0424172394707,-0.0760343956186
1765983351.0616927,118.83214092254639,0.015083065625907863,-0.16484046692538726,-1.900557455083996,0.0228981320886,-0.0113245282468,-0.0253160071135,-0.0596161667943,-0.0199746005966,-0.0921231719091
1765983351.261544,119.03199219703674,0.00564452415734171,-0.16242627810771681,-1.92056485224738,-0.0174088104488,0.020380065203,-0.00061965701588,-0.0442560572863,0.0336733087168,-0.103431663139
1765983351.462039,119.23248720169067,0.008011144860783876,-0.15354689955922912,-1.941236574944684,0.0105710757105,0.108946141213,0.0682604241609,0.0374328534365,0.0236284322308,-0.102656810208
1765983351.66426,119.43470811843872,0.019706472443772445,-0.15438925741202117,-1.960430509553103,0.0318085608213,0.0094002377096,-0.0428359579802,0.0230681349769,-0.0131915920212,-0.0871938752367
1765983351.8662891,119.63673734664917,0.018681509125174214,-0.1556783438929172,-1.9760656619968493,0.0189450179367,0.0528816863749,0.0395166802644,-0.0356893834412,-0.0115226619675,-0.0680697175099
1765983352.0614634,119.83191156387329,0.01582553413187594,-0.15811262293206096,-1.9876156584864684,-0.00648663182274,0.000551369399153,-0.0206315588713,-0.0130798496991,0.0153150762634,-0.0461292514934
1765983352.2617168,120.03216505050659,0.01830324662362589,-0.15180812168351637,-1.9952195160308626,-0.0249718948127,0.037367761493,0.0149862694978,0.0264447371721,0.0318926162289,-0.0297320118531
1765983352.4639902,120.23443841934204,0.024154053413340253,-0.14658434785008276,-1.999954749607078,0.0235389751522,0.0752521719638,0.0439550805329,0.0178795497179,0.00405426711937,-0.0189867826535
1765983352.6608837,120.43133187294006,0.023082172686475392,-0.1539489370152902,-2.0037139346437796,-0.00120638207064,0.0209902444709,0.0076162743806,-0.030244499141,-0.0581930988266,-0.0161406608655
1765983352.860199,120.6306471824646,0.015752723723792092,-0.15987964696008533,-2.0072841684011395,-0.0294223128678,-0.0132222619053,-0.0461394858123,-0.0342096981346,0.00924732156259,-0.0178840976565
1765983353.0624502,120.83289837837219,0.015521764199146873,-0.15355908352121622,-2.0106733072043745,-0.0230539980204,0.0247930208075,0.0121624398469,0.0369932691813,0.0296306199597,-0.0192028504222
1765983353.2627227,121.03317093849182,0.026322060035962703,-0.14955806681277886,-2.0140371459772535,0.000295445430123,-0.0049452498701,0.016572229886,0.0567134659052,0.00693615192709,-0.0184726925923
1765983353.4619288,121.23237705230713,0.030531227750724973,-0.14935508400344438,-2.0167736771553644,0.0169013925968,-0.0275701951381,-0.0258472037078,-0.0273715515375,0.00378753586834,-0.00950219378647
1765983353.663924,121.43437218666077,0.018436221585804907,-0.14815504697149787,-2.018657730468541,-0.0350788867892,0.0339145338017,0.0429689812898,-0.0629600022673,0.00120367475015,-0.00928612694916
1765983353.8644388,121.63488698005676,0.014071192368245753,-0.1489083720200972,-2.020618482821112,-0.0623368116887,0.00836442074212,0.0193169045686,0.0204827835098,0.00478293390175,-0.00903429709216
1765983354.066265,121.8367133140564,0.02377854769963908,-0.15023910368253937,-2.0230817736713806,0.0122912061541,0.00675716752591,-0.0147264075042,0.0437703098416,-0.0192131531222,-0.0165221287294
1765983354.2629058,122.03335404396057,0.02414955308721694,-0.15395724274893988,-2.0260468040710204,0.0266193953483,-0.00748855212299,-0.0315558981658,-0.0488322038889,-0.0165071022494,-0.0150737386553
1765983354.4600346,122.23048281669617,0.009606133363727,-0.15279102786283738,-2.0293929328226503,-0.0430198068591,0.0298948757205,-0.0130889487029,-0.0690381784677,0.0242378915862,-0.0191581478699
1765983354.6625261,122.4329743385315,0.008637824115982351,-0.1479734526746681,-2.0330489203671114,-0.0413953493209,0.110950883836,0.0408060479402,0.0609647671938,-0.00134963922041,-0.0206423025935
